loggingTime(txt),loggingSample(N),identifierForVendor(txt),locationTimestamp_since1970(s),locationLatitude(WGS84),locationLongitude(WGS84),locationAltitude(m),locationSpeed(m/s),locationCourse(°),locationVerticalAccuracy(m),locationHorizontalAccuracy(m),locationFloor(Z),accelerometerTimestamp_sinceReboot(s),accelerometerAccelerationX(G),accelerometerAccelerationY(G),accelerometerAccelerationZ(G),gyroTimestamp_sinceReboot(s),gyroRotationX(rad/s),gyroRotationY(rad/s),gyroRotationZ(rad/s)
2017-11-24 14:45:15.422 -0800,1,C4D50155-580C-4885-BACB-A13DEF47355A,1511563514.987677,49.27912130066601,-122.9165168508193,345.8929,0.0169349,8.239315252394334,3,16,-9999,140120.3507280417,0.4694976806640625,-0.177947998046875,-0.8642578125,140120.3226510417,-0.01927143259614039,0.02124882970552423,0.009266735329039717
2017-11-24 14:45:15.441 -0800,2,C4D50155-580C-4885-BACB-A13DEF47355A,1511563514.987677,49.27912130066601,-122.9165168508193,345.8929,0.0169349,8.239315252394334,3,16,-9999,140120.3807870417,0.4688568115234375,-0.1779632568359375,-0.86248779296875,140120.3527110417,-0.02034921388929546,0.007462976322729049,0.006023005121323206
2017-11-24 14:45:15.471 -0800,3,C4D50155-580C-4885-BACB-A13DEF47355A,1511563514.987677,49.27912130066601,-122.9165168508193,345.8929,0.0169349,8.239315252394334,3,16,-9999,140120.4108470417,0.469329833984375,-0.1798095703125,-0.863006591796875,140120.3827710417,-0.04156741724228377,-0.002025334009005261,-0.00290018242709629
2017-11-24 14:45:15.501 -0800,4,C4D50155-580C-4885-BACB-A13DEF47355A,1511563514.987677,49.27912130066601,-122.9165168508193,345.8929,0.0169349,8.239315252394334,3,16,-9999,140120.4409070417,0.471466064453125,-0.1841888427734375,-0.8686981201171875,140120.4128310417,-0.02219345294417533,0.01173255618234408,-0.007826497811524865
2017-11-24 14:45:15.531 -0800,5,C4D50155-580C-4885-BACB-A13DEF47355A,1511563514.987677,49.27912130066601,-122.9165168508193,345.8929,0.0169349,8.239315252394334,3,16,-9999,140120.4709670417,0.469329833984375,-0.1815948486328125,-0.8607635498046875,140120.4428910417,-0.01276000373089665,-0.004210457683415276,-0.003436543070638249
2017-11-24 14:45:15.561 -0800,6,C4D50155-580C-4885-BACB-A13DEF47355A,1511563514.987677,49.27912130066601,-122.9165168508193,345.8929,0.0169349,8.239315252394334,3,16,-9999,140120.5010270417,0.46942138671875,-0.18670654296875,-0.8520050048828125,140120.4729510417,-0.004107925981447225,-0.001038632825130903,-0.00858656398663348
2017-11-24 14:45:15.591 -0800,7,C4D50155-580C-4885-BACB-A13DEF47355A,1511563514.987677,49.27912130066601,-122.9165168508193,345.8929,0.0169349,8.239315252394334,3,16,-9999,140120.5310560417,0.4715423583984375,-0.18426513671875,-0.8585968017578125,140120.5030100417,-0.006289587546440137,0.01699203301914157,-0.001138767682117882
2017-11-24 14:45:15.632 -0800,8,C4D50155-580C-4885-BACB-A13DEF47355A,1511563514.987677,49.27912130066601,-122.9165168508193,345.8929,0.0169349,8.239315252394334,3,16,-9999,140120.5611160417,0.471588134765625,-0.17974853515625,-0.8635711669921875,140120.5330700417,-0.04374348616898752,0.005400091742353672,0.001331580545039619
2017-11-24 14:45:15.651 -0800,9,C4D50155-580C-4885-BACB-A13DEF47355A,1511563514.987677,49.27912130066601,-122.9165168508193,345.8929,0.0169349,8.239315252394334,3,16,-9999,140120.5911760417,0.47186279296875,-0.1811065673828125,-0.8687896728515625,140120.5631300417,-0.02235750366732421,0.0117197730091117,0.0006785734457521898
2017-11-24 14:45:15.681 -0800,10,C4D50155-580C-4885-BACB-A13DEF47355A,1511563514.987677,49.27912130066601,-122.9165168508193,345.8929,0.0169349,8.239315252394334,3,16,-9999,140120.6212350417,0.47088623046875,-0.1844329833984375,-0.8552703857421875,140120.5931900417,0.01190592796930824,0.009532252489720618,-0.006138053680414628
2017-11-24 14:45:15.716 -0800,11,C4D50155-580C-4885-BACB-A13DEF47355A,1511563514.987677,49.27912130066601,-122.9165168508193,345.8929,0.0169349,8.239315252394334,3,16,-9999,140120.6512950417,0.46435546875,-0.1788177490234375,-0.8451995849609375,140120.6232500417,-0.01283830066694498,0.004267981962960988,0.002963565661040176
2017-11-24 14:45:15.741 -0800,12,C4D50155-580C-4885-BACB-A13DEF47355A,1511563514.987677,49.27912130066601,-122.9165168508193,345.8929,0.0169349,8.239315252394334,3,16,-9999,140120.68134225,0.47503662109375,-0.184539794921875,-0.8637237548828125,140120.6533090417,-0.0348397396965256,0.03298458168117641,-0.01013599110884158
2017-11-24 14:45:15.771 -0800,13,C4D50155-580C-4885-BACB-A13DEF47355A,1511563514.987677,49.27912130066601,-122.9165168508193,345.8929,0.0169349,8.239315252394334,3,16,-9999,140120.71140225,0.4696197509765625,-0.184112548828125,-0.864501953125,140120.68335625,-0.01468813236011402,0.03080904538669068,-0.004451207445958439
2017-11-24 14:45:15.801 -0800,14,C4D50155-580C-4885-BACB-A13DEF47355A,1511563514.987677,49.27912130066601,-122.9165168508193,345.8929,0.0169349,8.239315252394334,3,16,-9999,140120.74146225,0.46728515625,-0.177947998046875,-0.870208740234375,140120.71341625,-0.0340229481901983,0.02447817884335431,0.0004937500661006907
2017-11-24 14:45:15.832 -0800,15,C4D50155-580C-4885-BACB-A13DEF47355A,1511563514.987677,49.27912130066601,-122.9165168508193,345.8929,0.0169349,8.239315252394334,3,16,-9999,140120.77152225,0.468170166015625,-0.1789093017578125,-0.8670654296875,140120.74347625,-0.02548085899376914,0.01067235175238354,-0.003635747520176176
2017-11-24 14:45:15.880 -0800,16,C4D50155-580C-4885-BACB-A13DEF47355A,1511563514.987677,49.27912130066601,-122.9165168508193,345.8929,0.0169349,8.239315252394334,3,16,-9999,140120.80158125,0.47235107421875,-0.1825103759765625,-0.865478515625,140120.77353625,0.005564142465502553,0.01273283948777785,-0.008374576363863172
2017-11-24 14:45:15.892 -0800,17,C4D50155-580C-4885-BACB-A13DEF47355A,1511563514.987677,49.27912130066601,-122.9165168508193,345.8929,0.0169349,8.239315252394334,3,16,-9999,140120.83164125,0.4690704345703125,-0.175537109375,-0.8558502197265625,140120.80359625,-0.01284575751799721,-0.001035437031822808,0.001887115948430148
2017-11-24 14:45:15.922 -0800,18,C4D50155-580C-4885-BACB-A13DEF47355A,1511563514.987677,49.27912130066601,-122.9165168508193,345.8929,0.0169349,8.239315252394334,3,16,-9999,140120.86170125,0.465240478515625,-0.1758575439453125,-0.846160888671875,140120.83365525,-0.01059139165524513,-0.005273058958356892,-0.00552605926191442
2017-11-24 14:45:15.967 -0800,19,C4D50155-580C-4885-BACB-A13DEF47355A,1511563514.987677,49.27912130066601,-122.9165168508193,345.8929,0.0169349,8.239315252394334,3,16,-9999,140120.89176125,0.4745330810546875,-0.1822662353515625,-0.8589935302734375,140120.86371525,-0.009163138362635635,0.02444861775525443,-0.01606312243092193
2017-11-24 14:45:15.982 -0800,20,C4D50155-580C-4885-BACB-A13DEF47355A,1511563514.987677,49.27912130066601,-122.9165168508193,345.8929,0.0169349,8.239315252394334,3,16,-9999,140120.92182125,0.4787445068359375,-0.1904144287109375,-0.8572235107421875,140120.89377525,-0.02302702236537013,0.005389705414102362,-0.02168292496320714
2017-11-24 14:45:16.012 -0800,21,C4D50155-580C-4885-BACB-A13DEF47355A,1511563514.987677,49.27912130066601,-122.9165168508193,345.8929,0.0169349,8.239315252394334,3,16,-9999,140120.95188025,0.469268798828125,-0.1822052001953125,-0.8621826171875,140120.92383525,-0.03216938807150315,0.006421946652617075,0.0100560962761392
2017-11-24 14:45:16.042 -0800,22,C4D50155-580C-4885-BACB-A13DEF47355A,1511563514.987677,49.27912130066601,-122.9165168508193,345.8929,0.0169349,8.239315252394334,3,16,-9999,140120.98194025,0.468719482421875,-0.175384521484375,-0.8661956787109375,140120.95389525,-0.04388516633897974,0.009631322082271566,0.009847304446676992
2017-11-24 14:45:16.072 -0800,23,C4D50155-580C-4885-BACB-A13DEF47355A,1511563514.987677,49.27912130066601,-122.9165168508193,345.8929,0.0169349,8.239315252394334,3,16,-9999,140121.01200025,0.47076416015625,-0.1793060302734375,-0.863494873046875,140120.98392425,-0.003981159513559453,0.01912202925898695,-0.009599097833081606
2017-11-24 14:45:16.119 -0800,24,C4D50155-580C-4885-BACB-A13DEF47355A,1511563514.987677,49.27912130066601,-122.9165168508193,345.8929,0.0169349,8.239315252394334,3,16,-9999,140121.04206025,0.4744110107421875,-0.1844024658203125,-0.86065673828125,140121.01398425,0.01104812378219372,0.01803545953423462,-0.01464152704103764
2017-11-24 14:45:16.132 -0800,25,C4D50155-580C-4885-BACB-A13DEF47355A,1511563514.987677,49.27912130066601,-122.9165168508193,345.8929,0.0169349,8.239315252394334,3,16,-9999,140121.07212025,0.479644775390625,-0.187042236328125,-0.8633575439453125,140121.04404425,-0.01033226608118042,0.01277678164576415,-0.01398585678066013
2017-11-24 14:45:16.162 -0800,26,C4D50155-580C-4885-BACB-A13DEF47355A,1511563515.987657,49.27912136354764,-122.9165156629229,345.8933,0.004064664,4.010119748043557,3,16,-9999,140121.10217925,0.483245849609375,-0.1901702880859375,-0.86578369140625,140121.07410325,-0.0008671252509298,0.0222898593756362,-0.00421631663781345
2017-11-24 14:45:16.194 -0800,27,C4D50155-580C-4885-BACB-A13DEF47355A,1511563515.987657,49.27912136354764,-122.9165156629229,345.8933,0.004064664,4.010119748043557,3,16,-9999,140121.13223925,0.4765167236328125,-0.185272216796875,-0.8591156005859375,140121.10416325,0.01902535651141707,0.01373072594823054,0.01314696103728517
2017-11-24 14:45:16.222 -0800,28,C4D50155-580C-4885-BACB-A13DEF47355A,1511563515.987657,49.27912136354764,-122.9165156629229,345.8933,0.004064664,4.010119748043557,3,16,-9999,140121.16229925,0.46533203125,-0.1794891357421875,-0.84295654296875,140121.13422325,0.0007254450809375845,-0.006392385564517196,0.01595073703292059
2017-11-24 14:45:16.252 -0800,29,C4D50155-580C-4885-BACB-A13DEF47355A,1511563515.987657,49.27912136354764,-122.9165156629229,345.8933,0.004064664,4.010119748043557,3,16,-9999,140121.19232825,0.4659881591796875,-0.181060791015625,-0.8494415283203125,140121.16428325,0.001033040186841737,0.01696406982769574,0.006441121412465645
2017-11-24 14:45:16.282 -0800,30,C4D50155-580C-4885-BACB-A13DEF47355A,1511563515.987657,49.27912136354764,-122.9165156629229,345.8933,0.004064664,4.010119748043557,3,16,-9999,140121.22238825,0.4713134765625,-0.1757354736328125,-0.8723907470703125,140121.19434325,-0.01818805866469616,0.03609568646660697,0.01251312869784631
2017-11-24 14:45:16.312 -0800,31,C4D50155-580C-4885-BACB-A13DEF47355A,1511563515.987657,49.27912136354764,-122.9165156629229,345.8933,0.004064664,4.010119748043557,3,16,-9999,140121.25244825,0.4628448486328125,-0.1695556640625,-0.865753173828125,140121.22440225,-0.04397651276436945,7.909588437535337e-05,0.01194960381118554
2017-11-24 14:45:16.360 -0800,32,C4D50155-580C-4885-BACB-A13DEF47355A,1511563515.987657,49.27912136354764,-122.9165156629229,345.8933,0.004064664,4.010119748043557,3,16,-9999,140121.28250825,0.459869384765625,-0.175872802734375,-0.850433349609375,140121.25446225,-0.003100984773288265,-0.008469651214779002,-0.007522364815037816
2017-11-24 14:45:16.373 -0800,33,C4D50155-580C-4885-BACB-A13DEF47355A,1511563515.987657,49.27912136354764,-122.9165156629229,345.8933,0.004064664,4.010119748043557,3,16,-9999,140121.31256825,0.4720916748046875,-0.1855926513671875,-0.8607330322265625,140121.28452225,0.001732119972987537,0.02126081393042958,-0.02863164487944189
2017-11-24 14:45:16.403 -0800,34,C4D50155-580C-4885-BACB-A13DEF47355A,1511563515.987657,49.27912136354764,-122.9165156629229,345.8933,0.004064664,4.010119748043557,3,16,-9999,140121.34262725,0.471893310546875,-0.189666748046875,-0.8541107177734375,140121.31458225,-0.02083231131103583,0.005389705414102362,-0.02483291190055286
2017-11-24 14:45:16.439 -0800,35,C4D50155-580C-4885-BACB-A13DEF47355A,1511563515.987657,49.27912136354764,-122.9165156629229,345.8933,0.004064664,4.010119748043557,3,16,-9999,140121.37268725,0.464996337890625,-0.1800994873046875,-0.8496246337890625,140121.34464225,-0.02311091193970763,0.01280714168219106,-0.0152854793926188
2017-11-24 14:45:16.463 -0800,36,C4D50155-580C-4885-BACB-A13DEF47355A,1511563515.987657,49.27912136354764,-122.9165156629229,345.8933,0.004064664,4.010119748043557,3,16,-9999,140121.40274725,0.473297119140625,-0.182586669921875,-0.8561248779296875,140121.37470125,-0.01647830924486529,0.02977999994148406,-0.02256656181289543
2017-11-24 14:45:16.493 -0800,37,C4D50155-580C-4885-BACB-A13DEF47355A,1511563515.987657,49.27912136354764,-122.9165156629229,345.8933,0.004064664,4.010119748043557,3,16,-9999,140121.43280725,0.478973388671875,-0.1823883056640625,-0.876953125,140121.40476125,-0.01131683673618271,0.03611805701976364,-0.01182070681442571
2017-11-24 14:45:16.523 -0800,38,C4D50155-580C-4885-BACB-A13DEF47355A,1511563515.987657,49.27912136354764,-122.9165156629229,345.8933,0.004064664,4.010119748043557,3,16,-9999,140121.46286725,0.47613525390625,-0.181396484375,-0.8705596923828125,140121.43482125,-0.04265638381201717,-0.01793319414837558,-0.006149238956992961
2017-11-24 14:45:16.553 -0800,39,C4D50155-580C-4885-BACB-A13DEF47355A,1511563515.987657,49.27912136354764,-122.9165156629229,345.8933,0.004064664,4.010119748043557,3,16,-9999,140121.49292725,0.47137451171875,-0.1788330078125,-0.86590576171875,140121.46488125,-0.02899569900045572,-0.01798033209966998,0.004738296211468981
2017-11-24 14:45:16.594 -0800,40,C4D50155-580C-4885-BACB-A13DEF47355A,1511563515.987657,49.27912136354764,-122.9165156629229,345.8933,0.004064664,4.010119748043557,3,16,-9999,140121.52298625,0.473175048828125,-0.1846771240234375,-0.85504150390625,140121.49494125,-0.001926264416454313,-0.007403055198202267,-0.01281566379767931
2017-11-24 14:45:16.613 -0800,41,C4D50155-580C-4885-BACB-A13DEF47355A,1511563515.987657,49.27912136354764,-122.9165156629229,345.8933,0.004064664,4.010119748043557,3,16,-9999,140121.55304625,0.47265625,-0.191650390625,-0.84161376953125,140121.52500125,0.0207201922291435,-0.003191798566459967,-0.02408562889867663
2017-11-24 14:45:16.643 -0800,42,C4D50155-580C-4885-BACB-A13DEF47355A,1511563515.987657,49.27912136354764,-122.9165156629229,345.8933,0.004064664,4.010119748043557,3,16,-9999,140121.58310625,0.472259521484375,-0.18951416015625,-0.852325439453125,140121.55506025,-0.01893960272431652,0.01809298381378033,-0.008814530575944262
2017-11-24 14:45:16.678 -0800,43,C4D50155-580C-4885-BACB-A13DEF47355A,1511563515.987657,49.27912136354764,-122.9165156629229,345.8933,0.004064664,4.010119748043557,3,16,-9999,140121.61316625,0.4734954833984375,-0.1813812255859375,-0.8678436279296875,140121.58512025,-0.0490261325072687,0.01496110637184715,0.0012570120345174
2017-11-24 14:45:16.703 -0800,44,C4D50155-580C-4885-BACB-A13DEF47355A,1511563515.987657,49.27912136354764,-122.9165156629229,345.8933,0.004064664,4.010119748043557,3,16,-9999,140121.64322625,0.47674560546875,-0.1810150146484375,-0.874359130859375,140121.61518025,-0.01795316785655117,0.02232661099867929,-0.0034685010037192
2017-11-24 14:45:16.733 -0800,45,C4D50155-580C-4885-BACB-A13DEF47355A,1511563515.987657,49.27912136354764,-122.9165156629229,345.8933,0.004064664,4.010119748043557,3,16,-9999,140121.673267875,0.4683685302734375,-0.1747589111328125,-0.8626708984375,140121.64520925,-0.002315884883932905,0.004232828236571941,0.01060257693182346
2017-11-24 14:45:16.763 -0800,46,C4D50155-580C-4885-BACB-A13DEF47355A,1511563515.987657,49.27912136354764,-122.9165156629229,345.8933,0.004064664,4.010119748043557,3,16,-9999,140121.703327875,0.4639129638671875,-0.1758270263671875,-0.851470947265625,140121.675251875,-0.01500132010430734,-0.005274656855010939,0.001837048519936659
2017-11-24 14:45:16.793 -0800,47,C4D50155-580C-4885-BACB-A13DEF47355A,1511563515.987657,49.27912136354764,-122.9165156629229,345.8933,0.004064664,4.010119748043557,3,16,-9999,140121.733387875,0.4691925048828125,-0.180938720703125,-0.8550567626953125,140121.705311875,-0.01999501346431492,0.008551143944135427,-0.01204760813930046
2017-11-24 14:45:16.842 -0800,48,C4D50155-580C-4885-BACB-A13DEF47355A,1511563515.987657,49.27912136354764,-122.9165156629229,345.8933,0.004064664,4.010119748043557,3,16,-9999,140121.763447875,0.467071533203125,-0.181060791015625,-0.8573760986328125,140121.735371875,-0.02746118558035206,0.008567921859002925,-0.01218555988376656
2017-11-24 14:45:16.853 -0800,49,C4D50155-580C-4885-BACB-A13DEF47355A,1511563515.987657,49.27912136354764,-122.9165156629229,345.8933,0.004064664,4.010119748043557,3,16,-9999,140121.793507875,0.468658447265625,-0.1819610595703125,-0.8621368408203125,140121.765431875,-0.02630883577667478,0.005390504362429386,-0.01748951151076837
2017-11-24 14:45:16.883 -0800,50,C4D50155-580C-4885-BACB-A13DEF47355A,1511563515.987657,49.27912136354764,-122.9165156629229,345.8933,0.004064664,4.010119748043557,3,16,-9999,140121.823567875,0.47265625,-0.1886444091796875,-0.860198974609375,140121.795490875,-0.01013465952829654,0.007489341617520834,-0.02569364556486647
2017-11-24 14:45:16.923 -0800,51,C4D50155-580C-4885-BACB-A13DEF47355A,1511563515.987657,49.27912136354764,-122.9165156629229,345.8933,0.004064664,4.010119748043557,3,16,-9999,140121.853626875,0.471923828125,-0.18292236328125,-0.8638916015625,140121.825550875,-0.03087162967230754,-0.004168113422083015,-0.004834702642929849
2017-11-24 14:45:16.944 -0800,52,C4D50155-580C-4885-BACB-A13DEF47355A,1511563515.987657,49.27912136354764,-122.9165156629229,345.8933,0.004064664,4.010119748043557,3,16,-9999,140121.883656875,0.46844482421875,-0.1770782470703125,-0.8588104248046875,140121.855610875,-0.03098721086361698,-0.01054052527842462,-0.0005981459808317969
2017-11-24 14:45:16.974 -0800,53,C4D50155-580C-4885-BACB-A13DEF47355A,1511563515.987657,49.27912136354764,-122.9165156629229,345.8933,0.004064664,4.010119748043557,3,16,-9999,140121.913715875,0.4656219482421875,-0.1712493896484375,-0.8529510498046875,140121.885670875,-0.02363661993888927,-0.01692971504963372,0.00377636242573236
2017-11-24 14:45:17.004 -0800,54,C4D50155-580C-4885-BACB-A13DEF47355A,1511563515.987657,49.27912136354764,-122.9165156629229,345.8933,0.004064664,4.010119748043557,3,16,-9999,140121.943775875,0.4741668701171875,-0.1771697998046875,-0.8607330322265625,140121.915730875,-0.04339674259505921,0.001184840368976253,-0.01781548242819407
2017-11-24 14:45:17.034 -0800,55,C4D50155-580C-4885-BACB-A13DEF47355A,1511563515.987657,49.27912136354764,-122.9165156629229,345.8933,0.004064664,4.010119748043557,3,16,-9999,140121.973835875,0.4707489013671875,-0.1879119873046875,-0.8560943603515625,140121.945789875,-0.01552543020683493,-0.007351123556945722,-0.02689260068762015
2017-11-24 14:45:17.075 -0800,56,C4D50155-580C-4885-BACB-A13DEF47355A,1511563515.987657,49.27912136354764,-122.9165156629229,345.8933,0.004064664,4.010119748043557,3,16,-9999,140122.003895875,0.4637908935546875,-0.1877288818359375,-0.8639373779296875,140121.975849875,-0.05648671198501667,-0.00729359927740001,-0.00531566953579816
2017-11-24 14:45:17.094 -0800,57,C4D50155-580C-4885-BACB-A13DEF47355A,1511563515.987657,49.27912136354764,-122.9165156629229,345.8933,0.004064664,4.010119748043557,3,16,-9999,140122.033955875,0.4672088623046875,-0.19091796875,-0.8710784912109375,140122.005909875,-0.06718809219328208,-0.02954431018501204,-0.009821205467994214
2017-11-24 14:45:17.124 -0800,58,C4D50155-580C-4885-BACB-A13DEF47355A,1511563515.987657,49.27912136354764,-122.9165156629229,345.8933,0.004064664,4.010119748043557,3,16,-9999,140122.064015875,0.4617767333984375,-0.198883056640625,-0.8641510009765625,140122.035969875,-0.0216917133948044,-0.04876620798487696,0.004799016284322787
2017-11-24 14:45:17.162 -0800,59,C4D50155-580C-4885-BACB-A13DEF47355A,1511563515.987657,49.27912136354764,-122.9165156629229,345.8933,0.004064664,4.010119748043557,3,16,-9999,140122.094074875,0.4281158447265625,-0.1737213134765625,-0.8310546875,140122.066029875,-0.07750491194014003,-0.1229941002036745,0.05676421337060293
2017-11-24 14:45:17.184 -0800,60,C4D50155-580C-4885-BACB-A13DEF47355A,1511563516.987637,49.27912056030919,-122.9165056215437,345.8986,0.08547948,181.9206132224291,3,16,-9999,140122.124134875,0.4340362548828125,-0.16656494140625,-0.8513336181640625,140122.096088875,-0.1420359683138501,-0.115382519492119,0.03006549081034055
2017-11-24 14:45:17.214 -0800,61,C4D50155-580C-4885-BACB-A13DEF47355A,1511563516.987637,49.27912056030919,-122.9165056215437,345.8986,0.08547948,181.9206132224291,3,16,-9999,140122.154194875,0.4643096923828125,-0.1925201416015625,-0.892303466796875,140122.126148875,-0.1089754865416064,-0.07719119156372871,-0.01389903772912354
2017-11-24 14:45:17.244 -0800,62,C4D50155-580C-4885-BACB-A13DEF47355A,1511563516.987637,49.27912056030919,-122.9165056215437,345.8986,0.08547948,181.9206132224291,3,16,-9999,140122.184254875,0.44415283203125,-0.200775146484375,-0.8750152587890625,140122.156208875,-0.1218508051477035,-0.1695232528728849,0.01967277097241533
2017-11-24 14:45:17.274 -0800,63,C4D50155-580C-4885-BACB-A13DEF47355A,1511563516.987637,49.27912056030919,-122.9165056215437,345.8986,0.08547948,181.9206132224291,3,16,-9999,140122.214314875,0.4367218017578125,-0.19482421875,-0.87158203125,140122.186268875,-0.2120992092199817,-0.2117956088557126,0.04023663564557118
2017-11-24 14:45:17.325 -0800,64,C4D50155-580C-4885-BACB-A13DEF47355A,1511563516.987637,49.27912056030919,-122.9165056215437,345.8986,0.08547948,181.9206132224291,3,16,-9999,140122.244373875,0.417572021484375,-0.2060089111328125,-0.843017578125,140122.216328875,-0.1633452517761191,-0.22783849126235,0.05279770124303891
2017-11-24 14:45:17.334 -0800,65,C4D50155-580C-4885-BACB-A13DEF47355A,1511563516.987637,49.27912056030919,-122.9165056215437,345.8986,0.08547948,181.9206132224291,3,16,-9999,140122.274433875,0.395416259765625,-0.216217041015625,-0.8301849365234375,140122.246388875,-0.2108981235683559,-0.2447506294487892,0.07952944700081828
2017-11-24 14:45:17.364 -0800,66,C4D50155-580C-4885-BACB-A13DEF47355A,1511563516.987637,49.27912056030919,-122.9165056215437,345.8986,0.08547948,181.9206132224291,3,16,-9999,140122.304493875,0.409271240234375,-0.22119140625,-0.8634796142578125,140122.276447875,-0.3317720812282184,-0.2328407067378458,0.09859448461247752
2017-11-24 14:45:17.399 -0800,67,C4D50155-580C-4885-BACB-A13DEF47355A,1511563516.987637,49.27912056030919,-122.9165056215437,345.8986,0.08547948,181.9206132224291,3,16,-9999,140122.334553875,0.3930206298828125,-0.2165985107421875,-0.848419189453125,140122.306507875,-0.3211785590441011,-0.2700756935187887,0.1476222150164003
2017-11-24 14:45:17.425 -0800,68,C4D50155-580C-4885-BACB-A13DEF47355A,1511563516.987637,49.27912056030919,-122.9165056215437,345.8986,0.08547948,181.9206132224291,3,16,-9999,140122.364613875,0.3649444580078125,-0.2099761962890625,-0.831512451171875,140122.336536875,-0.4135210066815087,-0.2815837452212391,0.174602700019993
2017-11-24 14:45:17.455 -0800,69,C4D50155-580C-4885-BACB-A13DEF47355A,1511563516.987637,49.27912056030919,-122.9165056215437,345.8986,0.08547948,181.9206132224291,3,16,-9999,140122.394672875,0.3419647216796875,-0.2055511474609375,-0.8601837158203125,140122.366596875,-0.4972246923749171,-0.202868959197876,0.1658009526172811
2017-11-24 14:45:17.485 -0800,70,C4D50155-580C-4885-BACB-A13DEF47355A,1511563516.987637,49.27912056030919,-122.9165056215437,345.8986,0.08547948,181.9206132224291,3,16,-9999,140122.424732875,0.3468780517578125,-0.220672607421875,-0.9468536376953125,140122.396656875,-0.4813921996943961,-0.04366172712352209,0.1079842579838789
2017-11-24 14:45:17.515 -0800,71,C4D50155-580C-4885-BACB-A13DEF47355A,1511563516.987637,49.27912056030919,-122.9165056215437,345.8986,0.08547948,181.9206132224291,3,16,-9999,140122.454792875,0.34320068359375,-0.244293212890625,-0.983184814453125,140122.426716875,-0.4231717698397378,0.05921804999900194,0.04975157758820628
2017-11-24 14:45:17.557 -0800,72,C4D50155-580C-4885-BACB-A13DEF47355A,1511563516.987637,49.27912056030919,-122.9165056215437,345.8986,0.08547948,181.9206132224291,3,16,-9999,140122.484852875,0.31121826171875,-0.2675933837890625,-0.95806884765625,140122.456776875,-0.2625746339924715,0.1002680150414833,0.03261200544467432
2017-11-24 14:45:17.575 -0800,73,C4D50155-580C-4885-BACB-A13DEF47355A,1511563516.987637,49.27912056030919,-122.9165056215437,345.8986,0.08547948,181.9206132224291,3,16,-9999,140122.514912875,0.31390380859375,-0.265472412109375,-0.9576873779296875,140122.486836875,-0.1573864288370668,0.2178076950165665,0.03271267293387931
2017-11-24 14:45:17.605 -0800,74,C4D50155-580C-4885-BACB-A13DEF47355A,1511563516.987637,49.27912056030919,-122.9165056215437,345.8986,0.08547948,181.9206132224291,3,16,-9999,140122.544972875,0.339691162109375,-0.24298095703125,-0.9935150146484375,140122.516895875,-0.06131262619634926,0.3533508765928034,0.06778437396135081
2017-11-24 14:45:17.635 -0800,75,C4D50155-580C-4885-BACB-A13DEF47355A,1511563516.987637,49.27912056030919,-122.9165056215437,345.8986,0.08547948,181.9206132224291,3,16,-9999,140122.575001875,0.3936004638671875,-0.2059783935546875,-1.045425415039062,140122.546955875,-0.087283773146802,0.4498909987403938,0.1132685022188141
2017-11-24 14:45:17.665 -0800,76,C4D50155-580C-4885-BACB-A13DEF47355A,1511563516.987637,49.27912056030919,-122.9165056215437,345.8986,0.08547948,181.9206132224291,3,16,-9999,140122.605061875,0.426544189453125,-0.1587677001953125,-1.048919677734375,140122.577015875,0.00445866429701066,0.4835387075329999,0.1788563009130676
2017-11-24 14:45:17.695 -0800,77,C4D50155-580C-4885-BACB-A13DEF47355A,1511563516.987637,49.27912056030919,-122.9165056215437,345.8986,0.08547948,181.9206132224291,3,16,-9999,140122.635120875,0.4495697021484375,-0.1499176025390625,-0.98565673828125,140122.607075875,0.2117663140837218,0.4087787157284046,0.1973966957899812
2017-11-24 14:45:17.725 -0800,78,C4D50155-580C-4885-BACB-A13DEF47355A,1511563516.987637,49.27912056030919,-122.9165056215437,345.8986,0.08547948,181.9206132224291,3,16,-9999,140122.6651682917,0.484619140625,-0.124755859375,-0.86669921875,140122.637135875,0.3017374830865227,0.2387449348745515,0.2433170498339995
2017-11-24 14:45:17.755 -0800,79,C4D50155-580C-4885-BACB-A13DEF47355A,1511563516.987637,49.27912056030919,-122.9165056215437,345.8986,0.08547948,181.9206132224291,3,16,-9999,140122.6952282917,0.498992919921875,-0.11212158203125,-0.7239837646484375,140122.6671822917,0.3594758807838767,0.1058846217804604,0.3110652048045253
2017-11-24 14:45:17.801 -0800,80,C4D50155-580C-4885-BACB-A13DEF47355A,1511563516.987637,49.27912056030919,-122.9165056215437,345.8986,0.08547948,181.9206132224291,3,16,-9999,140122.7252882917,0.5167999267578125,-0.088897705078125,-0.6695556640625,140122.6972422917,0.2494138245175179,0.168518175877489,0.4474392926408668
2017-11-24 14:45:17.815 -0800,81,C4D50155-580C-4885-BACB-A13DEF47355A,1511563516.987637,49.27912056030919,-122.9165056215437,345.8986,0.08547948,181.9206132224291,3,16,-9999,140122.7553482917,0.549468994140625,-0.0841064453125,-0.7576141357421875,140122.7273022917,-0.09326150452959385,0.318718863461304,0.5531374931450217
2017-11-24 14:45:17.845 -0800,82,C4D50155-580C-4885-BACB-A13DEF47355A,1511563516.987637,49.27912056030919,-122.9165056215437,345.8986,0.08547948,181.9206132224291,3,16,-9999,140122.7854082917,0.5456695556640625,-0.0539093017578125,-0.7291412353515625,140122.7573622917,-0.3785268036417584,0.1494592635363369,0.6367921766743727
2017-11-24 14:45:17.883 -0800,83,C4D50155-580C-4885-BACB-A13DEF47355A,1511563516.987637,49.27912056030919,-122.9165056215437,345.8986,0.08547948,181.9206132224291,3,16,-9999,140122.8154672917,0.5192108154296875,-0.0543365478515625,-0.6704254150390625,140122.7874222917,-0.5194144168935664,0.05749871319924679,0.6137595616707134
2017-11-24 14:45:17.906 -0800,84,C4D50155-580C-4885-BACB-A13DEF47355A,1511563516.987637,49.27912056030919,-122.9165056215437,345.8986,0.08547948,181.9206132224291,3,16,-9999,140122.8455272917,0.528717041015625,-0.098785400390625,-0.740081787109375,140122.8174822917,-0.6596985578423623,0.2669573981984149,0.5319083708315641
2017-11-24 14:45:17.935 -0800,85,C4D50155-580C-4885-BACB-A13DEF47355A,1511563516.987637,49.27912056030919,-122.9165056215437,345.8986,0.08547948,181.9206132224291,3,16,-9999,140122.8755872917,0.5160675048828125,-0.146881103515625,-0.71502685546875,140122.8475412917,-0.7791277506108567,0.2185275474592149,0.4593920922453605
2017-11-24 14:45:17.966 -0800,86,C4D50155-580C-4885-BACB-A13DEF47355A,1511563516.987637,49.27912056030919,-122.9165056215437,345.8986,0.08547948,181.9206132224291,3,16,-9999,140122.9056472917,0.4834747314453125,-0.207672119140625,-0.6282501220703125,140122.8776012917,-0.7087979272796082,0.186632731296099,0.3999945451888872
2017-11-24 14:45:17.996 -0800,87,C4D50155-580C-4885-BACB-A13DEF47355A,1511563516.987637,49.27912056030919,-122.9165056215437,345.8986,0.08547948,181.9206132224291,3,16,-9999,140122.9357072917,0.4656219482421875,-0.2515106201171875,-0.629547119140625,140122.9076612917,-0.6389938119475412,0.3699921712963816,0.4272514663136302
2017-11-24 14:45:18.033 -0800,88,C4D50155-580C-4885-BACB-A13DEF47355A,1511563516.987637,49.27912056030919,-122.9165056215437,345.8986,0.08547948,181.9206132224291,3,16,-9999,140122.9657662917,0.4785003662109375,-0.2682037353515625,-0.7010498046875,140122.9377212917,-0.7557971278812176,0.4964185535129502,0.48814517727051
2017-11-24 14:45:18.056 -0800,89,C4D50155-580C-4885-BACB-A13DEF47355A,1511563516.987637,49.27912056030919,-122.9165056215437,345.8986,0.08547948,181.9206132224291,3,16,-9999,140122.9958262917,0.5002593994140625,-0.29486083984375,-0.8109893798828125,140122.9677812917,-1.005673010847864,0.4608118234224817,0.5440614401500317
2017-11-24 14:45:18.086 -0800,90,C4D50155-580C-4885-BACB-A13DEF47355A,1511563516.987637,49.27912056030919,-122.9165056215437,345.8986,0.08547948,181.9206132224291,3,16,-9999,140123.0258862917,0.470245361328125,-0.2623443603515625,-0.854400634765625,140122.9978402917,-1.198448056882122,0.2413878559403461,0.6867344365966287
2017-11-24 14:45:18.116 -0800,91,C4D50155-580C-4885-BACB-A13DEF47355A,1511563516.987637,49.27912056030919,-122.9165056215437,345.8986,0.08547948,181.9206132224291,3,16,-9999,140123.0559462917,0.4792633056640625,-0.2504119873046875,-0.9029388427734375,140123.0278702917,-1.026280285046788,0.181559409419498,0.7057249056977657
2017-11-24 14:45:18.146 -0800,92,C4D50155-580C-4885-BACB-A13DEF47355A,1511563517.987616,49.2791200610524,-122.9164980451214,345.9496,0.1283553,177.1103432164209,3,16,-9999,140123.0860062917,0.5897674560546875,-0.2108306884765625,-1.049652099609375,140123.0579302917,-0.7987448615164894,0.1269872439421393,0.676829607870406
2017-11-24 14:45:18.176 -0800,93,C4D50155-580C-4885-BACB-A13DEF47355A,1511563517.987616,49.2791200610524,-122.9164980451214,345.9496,0.1283553,177.1103432164209,3,16,-9999,140123.1160662917,0.5709686279296875,-0.281005859375,-1.035675048828125,140123.0879892917,-0.5928303112959987,-0.573445161721312,0.4843219432095923
2017-11-24 14:45:18.206 -0800,94,C4D50155-580C-4885-BACB-A13DEF47355A,1511563517.987616,49.2791200610524,-122.9164980451214,345.9496,0.1283553,177.1103432164209,3,16,-9999,140123.1461252917,0.4672393798828125,-0.274139404296875,-0.8570098876953125,140123.1180492917,-0.3069381040632295,-0.990339594555624,0.7044939926419311
2017-11-24 14:45:18.236 -0800,95,C4D50155-580C-4885-BACB-A13DEF47355A,1511563517.987616,49.2791200610524,-122.9164980451214,345.9496,0.1283553,177.1103432164209,3,16,-9999,140123.1761852917,0.372802734375,-0.198028564453125,-0.84222412109375,140123.1481092917,-0.6027508526726529,-0.7526500704210709,1.11543519517548
2017-11-24 14:45:18.273 -0800,96,C4D50155-580C-4885-BACB-A13DEF47355A,1511563517.987616,49.2791200610524,-122.9164980451214,345.9496,0.1283553,177.1103432164209,3,16,-9999,140123.2062452917,0.371063232421875,-0.1302032470703125,-1.056610107421875,140123.1781692917,-1.081261245751474,-0.3622295893510186,1.138375132173205
2017-11-24 14:45:18.296 -0800,97,C4D50155-580C-4885-BACB-A13DEF47355A,1511563517.987616,49.2791200610524,-122.9164980451214,345.9496,0.1283553,177.1103432164209,3,16,-9999,140123.2363052917,0.31829833984375,-0.1497802734375,-1.213592529296875,140123.2082292917,-0.8873714004849094,-0.1840808903395851,0.9264945684787184
2017-11-24 14:45:18.326 -0800,98,C4D50155-580C-4885-BACB-A13DEF47355A,1511563517.987616,49.2791200610524,-122.9164980451214,345.9496,0.1283553,177.1103432164209,3,16,-9999,140123.2663342917,0.3379058837890625,-0.0494842529296875,-1.514938354492188,140123.2382882917,-0.8762175492074394,0.1342744516329231,0.8785470162129317
2017-11-24 14:45:18.363 -0800,99,C4D50155-580C-4885-BACB-A13DEF47355A,1511563517.987616,49.2791200610524,-122.9164980451214,345.9496,0.1283553,177.1103432164209,3,16,-9999,140123.2963942917,0.3499755859375,0.0593109130859375,-1.579833984375,140123.2683482917,-0.6204403675812863,-0.01772147284171427,0.6861570632722995
2017-11-24 14:45:18.386 -0800,100,C4D50155-580C-4885-BACB-A13DEF47355A,1511563517.987616,49.2791200610524,-122.9164980451214,345.9496,0.1283553,177.1103432164209,3,16,-9999,140123.3264542917,0.33770751953125,-0.0063018798828125,-1.449066162109375,140123.2984082917,0.3321606364312609,-0.2897833519014841,0.2904624579794542
2017-11-24 14:45:18.416 -0800,101,C4D50155-580C-4885-BACB-A13DEF47355A,1511563517.987616,49.2791200610524,-122.9164980451214,345.9496,0.1283553,177.1103432164209,3,16,-9999,140123.3565142917,0.3388824462890625,-0.043670654296875,-1.341018676757812,140123.3284682917,0.909846083240197,-0.1697821121308406,0.0791539412871171
2017-11-24 14:45:18.446 -0800,102,C4D50155-580C-4885-BACB-A13DEF47355A,1511563517.987616,49.2791200610524,-122.9164980451214,345.9496,0.1283553,177.1103432164209,3,16,-9999,140123.3865732917,0.3209381103515625,-0.0577545166015625,-1.199676513671875,140123.3585282917,1.147307108153221,-0.2519251854254627,0.02591468793534305
2017-11-24 14:45:18.477 -0800,103,C4D50155-580C-4885-BACB-A13DEF47355A,1511563517.987616,49.2791200610524,-122.9164980451214,345.9496,0.1283553,177.1103432164209,3,16,-9999,140123.4166332917,0.350738525390625,-0.110321044921875,-1.0849609375,140123.3885872917,1.305127365931862,-0.2160524055420953,-0.06998893871171841
2017-11-24 14:45:18.523 -0800,104,C4D50155-580C-4885-BACB-A13DEF47355A,1511563517.987616,49.2791200610524,-122.9164980451214,345.9496,0.1283553,177.1103432164209,3,16,-9999,140123.4466932917,0.378753662109375,-0.13763427734375,-0.97027587890625,140123.4186472917,1.477099129110966,-0.1729355611776034,-0.06776999289146439
2017-11-24 14:45:18.537 -0800,105,C4D50155-580C-4885-BACB-A13DEF47355A,1511563517.987616,49.2791200610524,-122.9164980451214,345.9496,0.1283553,177.1103432164209,3,16,-9999,140123.4767532917,0.35906982421875,-0.142852783203125,-0.8200531005859375,140123.4487072917,1.606832624769195,-0.3292474045148233,-0.03278031722556733
2017-11-24 14:45:18.567 -0800,106,C4D50155-580C-4885-BACB-A13DEF47355A,1511563517.987616,49.2791200610524,-122.9164980451214,345.9496,0.1283553,177.1103432164209,3,16,-9999,140123.5068132917,0.336669921875,-0.1452178955078125,-0.6593475341796875,140123.4787672917,1.671000159654109,-0.5224866395270817,-0.03844166507085777
2017-11-24 14:45:18.597 -0800,107,C4D50155-580C-4885-BACB-A13DEF47355A,1511563517.987616,49.2791200610524,-122.9164980451214,345.9496,0.1283553,177.1103432164209,3,16,-9999,140123.5368722917,0.30975341796875,-0.1644744873046875,-0.51776123046875,140123.5088272917,1.724421306908335,-0.6180504468190491,-0.0685268632732649
2017-11-24 14:45:18.627 -0800,108,C4D50155-580C-4885-BACB-A13DEF47355A,1511563517.987616,49.2791200610524,-122.9164980451214,345.9496,0.1283553,177.1103432164209,3,16,-9999,140123.5669322917,0.3022308349609375,-0.18536376953125,-0.4853515625,140123.5388872917,1.670757545678803,-0.4439380347557397,-0.05952697668545114
2017-11-24 14:45:18.657 -0800,109,C4D50155-580C-4885-BACB-A13DEF47355A,1511563517.987616,49.2791200610524,-122.9164980451214,345.9496,0.1283553,177.1103432164209,3,16,-9999,140123.5969922917,0.3107452392578125,-0.194854736328125,-0.5061187744140625,140123.5689462917,1.514997243003338,-0.2951115382944056,-0.01950605708817637
2017-11-24 14:45:18.687 -0800,110,C4D50155-580C-4885-BACB-A13DEF47355A,1511563517.987616,49.2791200610524,-122.9164980451214,345.9496,0.1283553,177.1103432164209,3,16,-9999,140123.6270522917,0.296875,-0.2183685302734375,-0.5032196044921875,140123.5990062917,1.207290018017294,-0.3050680323457758,-0.0007563377495825036
2017-11-24 14:45:18.717 -0800,111,C4D50155-580C-4885-BACB-A13DEF47355A,1511563517.987616,49.2791200610524,-122.9164980451214,345.9496,0.1283553,177.1103432164209,3,16,-9999,140123.6571122917,0.2786407470703125,-0.213287353515625,-0.5089569091796875,140123.6290662917,0.9036366568425683,-0.1920248335551824,0.06303276194443144
2017-11-24 14:45:18.759 -0800,112,C4D50155-580C-4885-BACB-A13DEF47355A,1511563517.987616,49.2791200610524,-122.9164980451214,345.9496,0.1283553,177.1103432164209,3,16,-9999,140123.6871556667,0.28082275390625,-0.204986572265625,-0.54022216796875,140123.6591262917,0.6045159958431574,0.03777747269499201,0.08996424478396675
2017-11-24 14:45:18.777 -0800,113,C4D50155-580C-4885-BACB-A13DEF47355A,1511563517.987616,49.2791200610524,-122.9164980451214,345.9496,0.1283553,177.1103432164209,3,16,-9999,140123.7172156667,0.3340301513671875,-0.2162322998046875,-0.6312255859375,140123.6891706667,0.3773081411269382,0.3375372923560219,0.0588366853309026
2017-11-24 14:45:18.807 -0800,114,C4D50155-580C-4885-BACB-A13DEF47355A,1511563517.987616,49.2791200610524,-122.9164980451214,345.9496,0.1283553,177.1103432164209,3,16,-9999,140123.7472756667,0.4333953857421875,-0.2654266357421875,-0.7669525146484375,140123.7191996667,0.0205087372385912,0.6026323420041444,-0.01199274702084483
2017-11-24 14:45:18.839 -0800,115,C4D50155-580C-4885-BACB-A13DEF47355A,1511563517.987616,49.2791200610524,-122.9164980451214,345.9496,0.1283553,177.1103432164209,3,16,-9999,140123.7773356667,0.5697021484375,-0.2332000732421875,-0.9499359130859375,140123.7492596667,-0.7482531914613501,0.761258738644752,0.05926279110531527
2017-11-24 14:45:18.867 -0800,116,C4D50155-580C-4885-BACB-A13DEF47355A,1511563517.987616,49.2791200610524,-122.9164980451214,345.9496,0.1283553,177.1103432164209,3,16,-9999,140123.8073956667,0.636138916015625,-0.172332763671875,-1.089767456054688,140123.7793196667,-1.68012148638763,0.6866769123170831,0.2247846444403561
2017-11-24 14:45:18.897 -0800,117,C4D50155-580C-4885-BACB-A13DEF47355A,1511563517.987616,49.2791200610524,-122.9164980451214,345.9496,0.1283553,177.1103432164209,3,16,-9999,140123.8374556667,0.7186431884765625,-0.0978240966796875,-1.319305419921875,140123.8093786667,-2.833379694312743,0.7081662254690414,0.333270641973606
2017-11-24 14:45:18.927 -0800,118,C4D50155-580C-4885-BACB-A13DEF47355A,1511563517.987616,49.2791200610524,-122.9164980451214,345.9496,0.1283553,177.1103432164209,3,16,-9999,140123.8675146667,0.629302978515625,0.032867431640625,-1.225830078125,140123.8394386667,-3.141917026610565,0.007288006639110843,0.4811506509835259
2017-11-24 14:45:18.958 -0800,119,C4D50155-580C-4885-BACB-A13DEF47355A,1511563517.987616,49.2791200610524,-122.9164980451214,345.9496,0.1283553,177.1103432164209,3,16,-9999,140123.8975746667,0.6489410400390625,-0.09539794921875,-0.8957061767578125,140123.8694986667,-2.034100070049365,-0.5090938687211823,0.04732170940961798
2017-11-24 14:45:19.001 -0800,120,C4D50155-580C-4885-BACB-A13DEF47355A,1511563517.987616,49.2791200610524,-122.9164980451214,345.9496,0.1283553,177.1103432164209,3,16,-9999,140123.9276346667,0.8105316162109375,-0.388153076171875,-0.9972991943359375,140123.8995586667,-0.190029859582604,0.7266107465467122,-0.2920992367854169
2017-11-24 14:45:19.018 -0800,121,C4D50155-580C-4885-BACB-A13DEF47355A,1511563517.987616,49.2791200610524,-122.9164980451214,345.9496,0.1283553,177.1103432164209,3,16,-9999,140123.9576636667,0.7260894775390625,-0.39007568359375,-1.065521240234375,140123.9296186667,0.2254299283724823,1.129113723166345,0.2408642784700366
2017-11-24 14:45:19.047 -0800,122,C4D50155-580C-4885-BACB-A13DEF47355A,1511563517.987616,49.2791200610524,-122.9164980451214,345.9496,0.1283553,177.1103432164209,3,16,-9999,140123.9877236667,0.50189208984375,-0.301605224609375,-0.842498779296875,140123.9596776667,-0.8517055482182412,-0.05952404720825204,0.605208684042687
2017-11-24 14:45:19.077 -0800,123,C4D50155-580C-4885-BACB-A13DEF47355A,1511563517.987616,49.2791200610524,-122.9164980451214,345.9496,0.1283553,177.1103432164209,3,16,-9999,140124.0177836667,0.337188720703125,-0.2741241455078125,-0.5749969482421875,140123.9897376667,-1.088142321376021,-0.8217694870368785,0.5383793196482386
2017-11-24 14:45:19.108 -0800,124,C4D50155-580C-4885-BACB-A13DEF47355A,1511563517.987616,49.2791200610524,-122.9164980451214,345.9496,0.1283553,177.1103432164209,3,16,-9999,140124.0478436667,0.239471435546875,-0.263153076171875,-0.4638671875,140124.0197976667,-0.321004920941028,-0.5454332344275316,0.5053662421433984
2017-11-24 14:45:19.140 -0800,125,C4D50155-580C-4885-BACB-A13DEF47355A,1511563517.987616,49.2791200610524,-122.9164980451214,345.9496,0.1283553,177.1103432164209,3,16,-9999,140124.0779036667,0.2173919677734375,-0.275543212890625,-0.5000152587890625,140124.0498576667,0.1113568851883553,-0.02847451837512721,0.4146339417010528
2017-11-24 14:45:19.168 -0800,126,C4D50155-580C-4885-BACB-A13DEF47355A,1511563518.987596,49.27912194332063,-122.9164800849222,345.9924,0.01908357,59.99291876348287,3,16,-9999,140124.1079626667,0.221099853515625,-0.307281494140625,-0.551849365234375,140124.0799176667,0.0110979248945782,0.09291209779457546,0.280134186639909
2017-11-24 14:45:19.198 -0800,127,C4D50155-580C-4885-BACB-A13DEF47355A,1511563518.987596,49.27912194332063,-122.9164800849222,345.9924,0.01908357,59.99291876348287,3,16,-9999,140124.1380226667,0.25579833984375,-0.2744903564453125,-0.676666259765625,140124.1099776667,-0.2600451635891142,0.1360113652958728,0.2433213108917436
2017-11-24 14:45:19.232 -0800,128,C4D50155-580C-4885-BACB-A13DEF47355A,1511563518.987596,49.27912194332063,-122.9164800849222,345.9924,0.01908357,59.99291876348287,3,16,-9999,140124.1680826667,0.2949981689453125,-0.2758636474609375,-0.810882568359375,140124.1400366667,-0.2779317524184134,0.171240991775986,0.1292794266923705
2017-11-24 14:45:19.258 -0800,129,C4D50155-580C-4885-BACB-A13DEF47355A,1511563518.987596,49.27912194332063,-122.9164800849222,345.9924,0.01908357,59.99291876348287,3,16,-9999,140124.1981426667,0.3571929931640625,-0.31036376953125,-0.9264678955078125,140124.1700966667,-0.02140861937092898,0.1995141751727032,0.003276220773015479
2017-11-24 14:45:19.290 -0800,130,C4D50155-580C-4885-BACB-A13DEF47355A,1511563518.987596,49.27912194332063,-122.9164800849222,345.9924,0.01908357,59.99291876348287,3,16,-9999,140124.2282026667,0.41925048828125,-0.296661376953125,-1.072433471679688,140124.2001566667,0.177087961949255,0.2394639883688729,-0.04294400520974574
2017-11-24 14:45:19.319 -0800,131,C4D50155-580C-4885-BACB-A13DEF47355A,1511563518.987596,49.27912194332063,-122.9164800849222,345.9924,0.01908357,59.99291876348287,3,16,-9999,140124.2582616667,0.438140869140625,-0.2954559326171875,-1.136459350585938,140124.2302166667,0.3097972738095385,0.01745781989379643,-0.06974179736255906
2017-11-24 14:45:19.348 -0800,132,C4D50155-580C-4885-BACB-A13DEF47355A,1511563518.987596,49.27912194332063,-122.9164800849222,345.9924,0.01908357,59.99291876348287,3,16,-9999,140124.2883216667,0.4487152099609375,-0.3022003173828125,-1.236251831054688,140124.2602766667,0.2154316226919978,-0.1520614382374534,-0.09210169787486434
2017-11-24 14:45:19.378 -0800,133,C4D50155-580C-4885-BACB-A13DEF47355A,1511563518.987596,49.27912194332063,-122.9164800849222,345.9924,0.01908357,59.99291876348287,3,16,-9999,140124.3183816667,0.436309814453125,-0.2817840576171875,-1.215789794921875,140124.2903356667,0.1016419398478552,-0.4266368087340399,-0.07678745634247269
2017-11-24 14:45:19.408 -0800,134,C4D50155-580C-4885-BACB-A13DEF47355A,1511563518.987596,49.27912194332063,-122.9164800849222,345.9924,0.01908357,59.99291876348287,3,16,-9999,140124.3484416667,0.3636322021484375,-0.288055419921875,-1.22637939453125,140124.3203956667,-0.01293470709840585,-0.5781621526440603,-0.04204758518682506
2017-11-24 14:45:19.439 -0800,135,C4D50155-580C-4885-BACB-A13DEF47355A,1511563518.987596,49.27912194332063,-122.9164800849222,345.9924,0.01908357,59.99291876348287,3,16,-9999,140124.3785016667,0.47918701171875,-0.14935302734375,-1.502853393554688,140124.3504556667,-0.488312956419185,0.1146786460160111,-0.04278101975103289
2017-11-24 14:45:19.475 -0800,136,C4D50155-580C-4885-BACB-A13DEF47355A,1511563518.987596,49.27912194332063,-122.9164800849222,345.9924,0.01908357,59.99291876348287,3,16,-9999,140124.4085606667,0.517822265625,-0.046966552734375,-1.402450561523438,140124.3805156667,0.05884121270475573,0.04565750004442747,-0.1062175169167203
2017-11-24 14:45:19.498 -0800,137,C4D50155-580C-4885-BACB-A13DEF47355A,1511563518.987596,49.27912194332063,-122.9164800849222,345.9924,0.01908357,59.99291876348287,3,16,-9999,140124.4386206667,0.52978515625,-0.15765380859375,-1.216201782226562,140124.4105756667,1.27971974386807,-0.0469222352461061,-0.3104052734864036
2017-11-24 14:45:19.528 -0800,138,C4D50155-580C-4885-BACB-A13DEF47355A,1511563518.987596,49.27912194332063,-122.9164800849222,345.9924,0.01908357,59.99291876348287,3,16,-9999,140124.4686806667,0.5484619140625,-0.1872711181640625,-1.136398315429688,140124.4406046667,1.39619735520043,0.180684561001407,-0.1460488194443814
2017-11-24 14:45:19.559 -0800,139,C4D50155-580C-4885-BACB-A13DEF47355A,1511563518.987596,49.27912194332063,-122.9164800849222,345.9924,0.01908357,59.99291876348287,3,16,-9999,140124.4987406667,0.45458984375,-0.14910888671875,-0.9624176025390625,140124.4706646667,0.9981668913154759,-0.2209899062031022,0.1327750919392085
2017-11-24 14:45:19.589 -0800,140,C4D50155-580C-4885-BACB-A13DEF47355A,1511563518.987596,49.27912194332063,-122.9164800849222,345.9924,0.01908357,59.99291876348287,3,16,-9999,140124.5288006667,0.30523681640625,-0.072906494140625,-0.715911865234375,140124.5007246667,0.7322840786169079,-0.8031811552603434,0.3146988217958294
2017-11-24 14:45:19.619 -0800,141,C4D50155-580C-4885-BACB-A13DEF47355A,1511563518.987596,49.27912194332063,-122.9164800849222,345.9924,0.01908357,59.99291876348287,3,16,-9999,140124.5588606667,0.21240234375,-0.07275390625,-0.5071868896484375,140124.5307836667,0.7628270742106997,-0.9855275287819598,0.1744391819290622
2017-11-24 14:45:19.649 -0800,142,C4D50155-580C-4885-BACB-A13DEF47355A,1511563518.987596,49.27912194332063,-122.9164800849222,345.9924,0.01908357,59.99291876348287,3,16,-9999,140124.5889196667,0.1959228515625,-0.11993408203125,-0.4317169189453125,140124.5608436667,1.003889225549729,-0.6408708078838291,-0.05850165966577062
2017-11-24 14:45:19.679 -0800,143,C4D50155-580C-4885-BACB-A13DEF47355A,1511563518.987596,49.27912194332063,-122.9164800849222,345.9924,0.01908357,59.99291876348287,3,16,-9999,140124.6189796667,0.212677001953125,-0.1764373779296875,-0.46026611328125,140124.5909036667,1.178086326135703,-0.2336348613749074,-0.1819215993277488
2017-11-24 14:45:19.722 -0800,144,C4D50155-580C-4885-BACB-A13DEF47355A,1511563518.987596,49.27912194332063,-122.9164800849222,345.9924,0.01908357,59.99291876348287,3,16,-9999,140124.6490396667,0.2443084716796875,-0.229217529296875,-0.53265380859375,140124.6209636667,1.019970457476064,-0.07616534191183018,-0.2387033895615462
2017-11-24 14:45:19.740 -0800,145,C4D50155-580C-4885-BACB-A13DEF47355A,1511563518.987596,49.27912194332063,-122.9164800849222,345.9924,0.01908357,59.99291876348287,3,16,-9999,140124.679043375,0.2722015380859375,-0.2724151611328125,-0.5767059326171875,140124.6510236667,0.7175048661475132,-0.1073522898572031,-0.2209715303915807
2017-11-24 14:45:19.769 -0800,146,C4D50155-580C-4885-BACB-A13DEF47355A,1511563518.987596,49.27912194332063,-122.9164800849222,345.9924,0.01908357,59.99291876348287,3,16,-9999,140124.709103375,0.273895263671875,-0.3029327392578125,-0.647064208984375,140124.681057375,0.4649439841698487,-0.1504211973220735,-0.1385349767448319
2017-11-24 14:45:19.800 -0800,147,C4D50155-580C-4885-BACB-A13DEF47355A,1511563518.987596,49.27912194332063,-122.9164800849222,345.9924,0.01908357,59.99291876348287,3,16,-9999,140124.739163375,0.25323486328125,-0.297943115234375,-0.70257568359375,140124.711117375,0.08651198906289703,-0.2463221608080449,-0.01707512364515204
2017-11-24 14:45:19.829 -0800,148,C4D50155-580C-4885-BACB-A13DEF47355A,1511563518.987596,49.27912194332063,-122.9164800849222,345.9924,0.01908357,59.99291876348287,3,16,-9999,140124.769223375,0.2456207275390625,-0.318511962890625,-0.7129974365234375,140124.741177375,-0.07664524354026246,-0.31391478717091,0.01484232938722961
2017-11-24 14:45:19.860 -0800,149,C4D50155-580C-4885-BACB-A13DEF47355A,1511563518.987596,49.27912194332063,-122.9164800849222,345.9924,0.01908357,59.99291876348287,3,16,-9999,140124.799283375,0.2601165771484375,-0.3307342529296875,-0.78887939453125,140124.771237375,-0.1669948477339637,-0.04845941182729983,0.01487641784918262
2017-11-24 14:45:19.890 -0800,150,C4D50155-580C-4885-BACB-A13DEF47355A,1511563518.987596,49.27912194332063,-122.9164800849222,345.9924,0.01908357,59.99291876348287,3,16,-9999,140124.829342375,0.33599853515625,-0.358642578125,-0.9349517822265625,140124.801297375,-0.2533917882377693,0.3444010574334831,-0.04426599837486107
2017-11-24 14:45:19.919 -0800,151,C4D50155-580C-4885-BACB-A13DEF47355A,1511563518.987596,49.27912194332063,-122.9164800849222,345.9924,0.01908357,59.99291876348287,3,16,-9999,140124.859402375,0.4403839111328125,-0.4500732421875,-1.062271118164062,140124.831357375,-0.590115751196881,0.4916272603957886,-0.08203974264432697
2017-11-24 14:45:19.959 -0800,152,C4D50155-580C-4885-BACB-A13DEF47355A,1511563518.987596,49.27912194332063,-122.9164800849222,345.9924,0.01908357,59.99291876348287,3,16,-9999,140124.889462375,0.4986419677734375,-0.3924102783203125,-1.232528686523438,140124.861416375,-1.211615524259801,0.6941303012598877,0.2217630218675522
2017-11-24 14:45:19.979 -0800,153,C4D50155-580C-4885-BACB-A13DEF47355A,1511563518.987596,49.27912194332063,-122.9164800849222,345.9924,0.01908357,59.99291876348287,3,16,-9999,140124.919522375,0.5428924560546875,-0.3000946044921875,-1.445205688476562,140124.891476375,-1.629045252473219,0.8538656381784044,0.4441529518557091
2017-11-24 14:45:20.009 -0800,154,C4D50155-580C-4885-BACB-A13DEF47355A,1511563518.987596,49.27912194332063,-122.9164800849222,345.9924,0.01908357,59.99291876348287,3,16,-9999,140124.949582375,0.47613525390625,-0.1504974365234375,-1.24591064453125,140124.921536375,-1.385118338749591,0.09154749405201885,0.421297703380649
2017-11-24 14:45:20.039 -0800,155,C4D50155-580C-4885-BACB-A13DEF47355A,1511563518.987596,49.27912194332063,-122.9164800849222,345.9924,0.01908357,59.99291876348287,3,16,-9999,140124.979641375,0.3544769287109375,-0.1922454833984375,-0.6798095703125,140124.951596375,-0.2291002969868295,-0.9544915820703944,0.05301980887795152
2017-11-24 14:45:20.069 -0800,156,C4D50155-580C-4885-BACB-A13DEF47355A,1511563518.987596,49.27912194332063,-122.9164800849222,345.9924,0.01908357,59.99291876348287,3,16,-9999,140125.009701375,0.4212188720703125,-0.4245452880859375,-0.6800079345703125,140124.981656375,0.863935316576103,0.1025921557247955,-0.3421901010964993
2017-11-24 14:45:20.113 -0800,157,C4D50155-580C-4885-BACB-A13DEF47355A,1511563518.987596,49.27912194332063,-122.9164800849222,345.9924,0.01908357,59.99291876348287,3,16,-9999,140125.039761375,0.506011962890625,-0.4547882080078125,-0.987396240234375,140125.011715375,0.468953373190963,1.170468886469749,-0.09273339968543114
2017-11-24 14:45:20.130 -0800,158,C4D50155-580C-4885-BACB-A13DEF47355A,1511563518.987596,49.27912194332063,-122.9164800849222,345.9924,0.01908357,59.99291876348287,3,16,-9999,140125.069821375,0.3780517578125,-0.3269805908203125,-0.9333343505859375,140125.041775375,-0.5442033866361329,0.2119146521564392,0.2818567192329722
2017-11-24 14:45:20.160 -0800,159,C4D50155-580C-4885-BACB-A13DEF47355A,1511563519.987574,49.27912757207131,-122.9164763332391,346.0716,0.3947342,304.3386947732147,3,16,-9999,140125.099881375,0.251220703125,-0.26904296875,-0.6833343505859375,140125.071835375,-0.7171586552058029,-0.613173666230896,0.2809235475870084
2017-11-24 14:45:20.197 -0800,160,C4D50155-580C-4885-BACB-A13DEF47355A,1511563519.987574,49.27912757207131,-122.9164763332391,346.0716,0.3947342,304.3386947732147,3,16,-9999,140125.129941375,0.1955108642578125,-0.263427734375,-0.5962371826171875,140125.101895375,0.02369574211508903,-0.2369688727435776,0.199807389208721
2017-11-24 14:45:20.220 -0800,161,C4D50155-580C-4885-BACB-A13DEF47355A,1511563519.987574,49.27912757207131,-122.9164763332391,346.0716,0.3947342,304.3386947732147,3,16,-9999,140125.160000375,0.19537353515625,-0.299652099609375,-0.5553741455078125,140125.131924375,0.4624256990430697,0.07944023110430062,0.1108359708791358
2017-11-24 14:45:20.250 -0800,162,C4D50155-580C-4885-BACB-A13DEF47355A,1511563519.987574,49.27912757207131,-122.9164763332391,346.0716,0.3947342,304.3386947732147,3,16,-9999,140125.190060375,0.206695556640625,-0.3282623291015625,-0.5524749755859375,140125.161984375,0.2214588888710652,0.09589696874433626,0.1064220476884384
2017-11-24 14:45:20.280 -0800,163,C4D50155-580C-4885-BACB-A13DEF47355A,1511563519.987574,49.27912757207131,-122.9164763332391,346.0716,0.3947342,304.3386947732147,3,16,-9999,140125.220120375,0.2559356689453125,-0.3072357177734375,-0.6414337158203125,140125.192044375,-0.1548889163667905,0.2048479542039139,0.1763023294276816
2017-11-24 14:45:20.310 -0800,164,C4D50155-580C-4885-BACB-A13DEF47355A,1511563519.987574,49.27912757207131,-122.9164763332391,346.0716,0.3947342,304.3386947732147,3,16,-9999,140125.250180375,0.3109893798828125,-0.3395538330078125,-0.74072265625,140125.222104375,-0.2212325201784084,0.2538514498419169,0.144352385830001
2017-11-24 14:45:20.340 -0800,165,C4D50155-580C-4885-BACB-A13DEF47355A,1511563519.987574,49.27912757207131,-122.9164763332391,346.0716,0.3947342,304.3386947732147,3,16,-9999,140125.280240375,0.3179779052734375,-0.36724853515625,-0.84454345703125,140125.252163375,-0.06189213004955051,0.3171609142236076,0.1431960412846886
2017-11-24 14:45:20.370 -0800,166,C4D50155-580C-4885-BACB-A13DEF47355A,1511563519.987574,49.27912757207131,-122.9164763332391,346.0716,0.3947342,304.3386947732147,3,16,-9999,140125.310299375,0.240447998046875,-0.354034423828125,-0.8512420654296875,140125.282223375,0.07805591996967744,0.04421300146916849,0.1142821013296983
2017-11-24 14:45:20.400 -0800,167,C4D50155-580C-4885-BACB-A13DEF47355A,1511563519.987574,49.27912757207131,-122.9164763332391,346.0716,0.3947342,304.3386947732147,3,16,-9999,140125.340359375,0.2576446533203125,-0.3870086669921875,-0.8620758056640625,140125.312283375,0.01420130651284754,-0.1580295822403209,-0.0607392476136552
2017-11-24 14:45:20.439 -0800,168,C4D50155-580C-4885-BACB-A13DEF47355A,1511563519.987574,49.27912757207131,-122.9164763332391,346.0716,0.3947342,304.3386947732147,3,16,-9999,140125.370389375,0.411224365234375,-0.4436798095703125,-1.217544555664062,140125.342343375,-0.4290528284749598,0.3567448090860004,-0.2272171757800345
2017-11-24 14:45:20.460 -0800,169,C4D50155-580C-4885-BACB-A13DEF47355A,1511563519.987574,49.27912757207131,-122.9164763332391,346.0716,0.3947342,304.3386947732147,3,16,-9999,140125.400448375,0.477508544921875,-0.3863067626953125,-1.545272827148438,140125.372403375,-0.8608316686417247,0.4911910346092336,-0.0976794224619263
2017-11-24 14:45:20.491 -0800,170,C4D50155-580C-4885-BACB-A13DEF47355A,1511563519.987574,49.27912757207131,-122.9164763332391,346.0716,0.3947342,304.3386947732147,3,16,-9999,140125.430508375,0.4857940673828125,-0.3690948486328125,-1.415435791015625,140125.402462375,-0.8512264455381359,-0.3594907944859811,-0.2771615662311625
2017-11-24 14:45:20.520 -0800,171,C4D50155-580C-4885-BACB-A13DEF47355A,1511563519.987574,49.27912757207131,-122.9164763332391,346.0716,0.3947342,304.3386947732147,3,16,-9999,140125.460568375,0.5143890380859375,-0.3277435302734375,-1.466232299804688,140125.432522375,-0.3966714527806863,-0.005840312270543769,-0.4572130938414576
2017-11-24 14:45:20.550 -0800,172,C4D50155-580C-4885-BACB-A13DEF47355A,1511563519.987574,49.27912757207131,-122.9164763332391,346.0716,0.3947342,304.3386947732147,3,16,-9999,140125.490628375,0.4462890625,-0.2406158447265625,-1.238754272460938,140125.462582375,0.5244818798157691,0.1171202321033957,-0.330349154257789
2017-11-24 14:45:20.595 -0800,173,C4D50155-580C-4885-BACB-A13DEF47355A,1511563519.987574,49.27912757207131,-122.9164763332391,346.0716,0.3947342,304.3386947732147,3,16,-9999,140125.520688375,0.3523712158203125,-0.3041534423828125,-0.9029998779296875,140125.492642375,1.345993839175237,-0.2993891076372909,-0.4416655593975751
2017-11-24 14:45:20.610 -0800,174,C4D50155-580C-4885-BACB-A13DEF47355A,1511563519.987574,49.27912757207131,-122.9164763332391,346.0716,0.3947342,304.3386947732147,3,16,-9999,140125.550747375,0.39013671875,-0.3389129638671875,-0.8968963623046875,140125.522702375,1.103619282051016,0.06066734226422306,-0.3336072655353919
2017-11-24 14:45:20.641 -0800,175,C4D50155-580C-4885-BACB-A13DEF47355A,1511563519.987574,49.27912757207131,-122.9164763332391,346.0716,0.3947342,304.3386947732147,3,16,-9999,140125.580807375,0.3980712890625,-0.2694244384765625,-0.94744873046875,140125.552762375,0.6107283517179852,0.3487513310741275,0.01957370137986439
2017-11-24 14:45:20.677 -0800,176,C4D50155-580C-4885-BACB-A13DEF47355A,1511563519.987574,49.27912757207131,-122.9164763332391,346.0716,0.3947342,304.3386947732147,3,16,-9999,140125.610867375,0.310211181640625,-0.19024658203125,-0.8239898681640625,140125.582821375,0.4428828903318503,-0.0406440992923533,0.2612044376116257
2017-11-24 14:45:20.701 -0800,177,C4D50155-580C-4885-BACB-A13DEF47355A,1511563519.987574,49.27912757207131,-122.9164763332391,346.0716,0.3947342,304.3386947732147,3,16,-9999,140125.640927375,0.2148590087890625,-0.15673828125,-0.6565704345703125,140125.612881375,0.4405749949311876,-0.4162648615526173,0.2772718211002918
2017-11-24 14:45:20.731 -0800,178,C4D50155-580C-4885-BACB-A13DEF47355A,1511563519.987574,49.27912757207131,-122.9164763332391,346.0716,0.3947342,304.3386947732147,3,16,-9999,140125.670995,0.16583251953125,-0.156280517578125,-0.524871826171875,140125.642941375,0.5273045642551442,-0.4927082374822518,0.1851008810370854
2017-11-24 14:45:20.761 -0800,179,C4D50155-580C-4885-BACB-A13DEF47355A,1511563519.987574,49.27912757207131,-122.9164763332391,346.0716,0.3947342,304.3386947732147,3,16,-9999,140125.701054,0.16009521484375,-0.188568115234375,-0.47894287109375,140125.673009,0.6850015176753141,-0.3050983923822027,0.08211644168372124
2017-11-24 14:45:20.791 -0800,180,C4D50155-580C-4885-BACB-A13DEF47355A,1511563519.987574,49.27912757207131,-122.9164763332391,346.0716,0.3947342,304.3386947732147,3,16,-9999,140125.731114,0.180023193359375,-0.2235565185546875,-0.5131378173828125,140125.703069,0.6959148855063498,-0.09069741303206556,0.0179608910237124
2017-11-24 14:45:20.837 -0800,181,C4D50155-580C-4885-BACB-A13DEF47355A,1511563519.987574,49.27912757207131,-122.9164763332391,346.0716,0.3947342,304.3386947732147,3,16,-9999,140125.761174,0.1874542236328125,-0.2462615966796875,-0.529052734375,140125.733128,0.486599212257719,-0.105096059781688,0.02362916308783705
2017-11-24 14:45:20.851 -0800,182,C4D50155-580C-4885-BACB-A13DEF47355A,1511563519.987574,49.27912757207131,-122.9164763332391,346.0716,0.3947342,304.3386947732147,3,16,-9999,140125.791234,0.1987152099609375,-0.2698974609375,-0.6283111572265625,140125.763188,0.2370455717829719,-0.03665654819217766,0.03619821816857502
2017-11-24 14:45:20.881 -0800,183,C4D50155-580C-4885-BACB-A13DEF47355A,1511563519.987574,49.27912757207131,-122.9164763332391,346.0716,0.3947342,304.3386947732147,3,16,-9999,140125.821294,0.2095489501953125,-0.2673187255859375,-0.7376556396484375,140125.793248,-0.08319981561516548,-0.02429202388315777,0.0473254378351441
2017-11-24 14:45:20.916 -0800,184,C4D50155-580C-4885-BACB-A13DEF47355A,1511563519.987574,49.27912757207131,-122.9164763332391,346.0716,0.3947342,304.3386947732147,3,16,-9999,140125.851354,0.2162322998046875,-0.27081298828125,-0.7728271484375,140125.823308,-0.1820542247500347,-0.03350230019708781,-0.0300335328772596
2017-11-24 14:45:20.941 -0800,185,C4D50155-580C-4885-BACB-A13DEF47355A,1511563519.987574,49.27912757207131,-122.9164763332391,346.0716,0.3947342,304.3386947732147,3,16,-9999,140125.881413,0.273040771484375,-0.2800750732421875,-0.873870849609375,140125.853337,-0.3005686216840869,0.1929971536691703,-0.1848239122837171
2017-11-24 14:45:20.974 -0800,186,C4D50155-580C-4885-BACB-A13DEF47355A,1511563519.987574,49.27912757207131,-122.9164763332391,346.0716,0.3947342,304.3386947732147,3,16,-9999,140125.911473,0.4595184326171875,-0.3992156982421875,-1.1182861328125,140125.883397,-0.5463552207969169,0.4941655192307431,-0.4141055705407811
2017-11-24 14:45:21.002 -0800,187,C4D50155-580C-4885-BACB-A13DEF47355A,1511563519.987574,49.27912757207131,-122.9164763332391,346.0716,0.3947342,304.3386947732147,3,16,-9999,140125.941533,0.5534515380859375,-0.3670501708984375,-1.252960205078125,140125.913457,-1.129077770491629,0.6289065566866482,-0.2586419440107515
2017-11-24 14:45:21.031 -0800,188,C4D50155-580C-4885-BACB-A13DEF47355A,1511563519.987574,49.27912757207131,-122.9164763332391,346.0716,0.3947342,304.3386947732147,3,16,-9999,140125.971593,0.55859375,-0.2973785400390625,-1.263778686523438,140125.943517,-1.329900356707888,0.4157319630184925,-0.0288942325629237
2017-11-24 14:45:21.069 -0800,189,C4D50155-580C-4885-BACB-A13DEF47355A,1511563519.987574,49.27912757207131,-122.9164763332391,346.0716,0.3947342,304.3386947732147,3,16,-9999,140126.001653,0.6289520263671875,-0.156402587890625,-1.409835815429688,140125.973576,-1.297079559433752,0.6063698222779615,0.1476525750528272
2017-11-24 14:45:21.092 -0800,190,C4D50155-580C-4885-BACB-A13DEF47355A,1511563519.987574,49.27912757207131,-122.9164763332391,346.0716,0.3947342,304.3386947732147,3,16,-9999,140126.031712,0.5838775634765625,-0.155548095703125,-0.9219818115234375,140126.003636,-0.7897170117372297,-0.3960586594138591,-0.04639333145361636
2017-11-24 14:45:21.123 -0800,191,C4D50155-580C-4885-BACB-A13DEF47355A,1511563519.987574,49.27912757207131,-122.9164763332391,346.0716,0.3947342,304.3386947732147,3,16,-9999,140126.061772,0.652435302734375,-0.4028472900390625,-0.72772216796875,140126.033696,0.3802208404111579,0.06235871587253239,-0.3895139410349894
2017-11-24 14:45:21.154 -0800,192,C4D50155-580C-4885-BACB-A13DEF47355A,1511563520.987554,49.27913067250844,-122.9164787277226,346.0708,0.1437442,300.4366350211431,3,16,-9999,140126.091802,0.7210540771484375,-0.4893646240234375,-1.019821166992188,140126.063756,0.6291923138716137,1.48202118343765,-0.07200388639247236
2017-11-24 14:45:21.182 -0800,193,C4D50155-580C-4885-BACB-A13DEF47355A,1511563520.987554,49.27913067250844,-122.9164787277226,346.0708,0.1437442,300.4366350211431,3,16,-9999,140126.121861,0.5764923095703125,-0.393218994140625,-1.020065307617188,140126.093816,-0.10550086026738,0.8728350683069298,0.4000382210307645
2017-11-24 14:45:21.212 -0800,194,C4D50155-580C-4885-BACB-A13DEF47355A,1511563520.987554,49.27913067250844,-122.9164787277226,346.0708,0.1437442,300.4366350211431,3,16,-9999,140126.151921,0.3563079833984375,-0.34808349609375,-0.5935821533203125,140126.123876,-0.5799416768844513,-0.7081590349340982,0.4427579880767256
2017-11-24 14:45:21.242 -0800,195,C4D50155-580C-4885-BACB-A13DEF47355A,1511563520.987554,49.27913067250844,-122.9164787277226,346.0708,0.1437442,300.4366350211431,3,16,-9999,140126.181981,0.232208251953125,-0.3358154296875,-0.3475341796875,140126.153935,0.006501308853101437,-0.779403654099789,0.3885504093525987
2017-11-24 14:45:21.272 -0800,196,C4D50155-580C-4885-BACB-A13DEF47355A,1511563520.987554,49.27913067250844,-122.9164787277226,346.0708,0.1437442,300.4366350211431,3,16,-9999,140126.212041,0.195465087890625,-0.3385009765625,-0.3150787353515625,140126.183995,0.5913288210734121,-0.09106572821082352,0.4063376622732379
2017-11-24 14:45:21.315 -0800,197,C4D50155-580C-4885-BACB-A13DEF47355A,1511563520.987554,49.27913067250844,-122.9164787277226,346.0708,0.1437442,300.4366350211431,3,16,-9999,140126.242101,0.192138671875,-0.3537750244140625,-0.352996826171875,140126.214055,0.5180839016129628,0.2867745125019125,0.4356739795771148
2017-11-24 14:45:21.332 -0800,198,C4D50155-580C-4885-BACB-A13DEF47355A,1511563520.987554,49.27913067250844,-122.9164787277226,346.0708,0.1437442,300.4366350211431,3,16,-9999,140126.27216,0.2422637939453125,-0.3745880126953125,-0.4755706787109375,140126.244115,0.002613892609912772,0.4948046778923622,0.4436650607440066
2017-11-24 14:45:21.362 -0800,199,C4D50155-580C-4885-BACB-A13DEF47355A,1511563520.987554,49.27913067250844,-122.9164787277226,346.0708,0.1437442,300.4366350211431,3,16,-9999,140126.30222,0.3527374267578125,-0.3858795166015625,-0.7070770263671875,140126.274175,-0.3649073978270932,0.6443174709666096,0.3436436544194646
2017-11-24 14:45:21.394 -0800,200,C4D50155-580C-4885-BACB-A13DEF47355A,1511563520.987554,49.27913067250844,-122.9164787277226,346.0708,0.1437442,300.4366350211431,3,16,-9999,140126.33228,0.4213104248046875,-0.505035400390625,-0.875823974609375,140126.304234,-0.2393393524298572,0.535201103203338,0.05429759356897154
2017-11-24 14:45:21.422 -0800,201,C4D50155-580C-4885-BACB-A13DEF47355A,1511563520.987554,49.27913067250844,-122.9164787277226,346.0708,0.1437442,300.4366350211431,3,16,-9999,140126.36234,0.406982421875,-0.5279541015625,-1.010757446289062,140126.334294,0.008878180125997157,0.3763382178579314,0.1967591350250163
2017-11-24 14:45:21.452 -0800,202,C4D50155-580C-4885-BACB-A13DEF47355A,1511563520.987554,49.27913067250844,-122.9164787277226,346.0708,0.1437442,300.4366350211431,3,16,-9999,140126.3924,0.42437744140625,-0.438201904296875,-1.273147583007812,140126.364354,-0.6097480421207271,0.1747323959650799,0.4060505735077274
2017-11-24 14:45:21.482 -0800,203,C4D50155-580C-4885-BACB-A13DEF47355A,1511563520.987554,49.27913067250844,-122.9164787277226,346.0708,0.1437442,300.4366350211431,3,16,-9999,140126.42246,0.5079345703125,-0.3850250244140625,-1.505111694335938,140126.394414,-0.9286501310650286,0.02625184412934708,0.1371096529294215
2017-11-24 14:45:21.512 -0800,204,C4D50155-580C-4885-BACB-A13DEF47355A,1511563520.987554,49.27913067250844,-122.9164787277226,346.0708,0.1437442,300.4366350211431,3,16,-9999,140126.452519,0.4256439208984375,-0.3785247802734375,-1.389190673828125,140126.424474,-0.1737989580030071,-0.3507383155634357,-0.04766259402914812
2017-11-24 14:45:21.551 -0800,205,C4D50155-580C-4885-BACB-A13DEF47355A,1511563520.987554,49.27913067250844,-122.9164787277226,346.0708,0.1437442,300.4366350211431,3,16,-9999,140126.482579,0.387969970703125,-0.320892333984375,-1.343704223632812,140126.454533,0.09955854892708621,-0.2885833315142943,-0.1520025823773626
2017-11-24 14:45:21.572 -0800,206,C4D50155-580C-4885-BACB-A13DEF47355A,1511563520.987554,49.27913067250844,-122.9164787277226,346.0708,0.1437442,300.4366350211431,3,16,-9999,140126.512639,0.35015869140625,-0.22308349609375,-1.229721069335938,140126.484593,0.1334818948925156,-0.3393269366085551,-0.3205971909781369
2017-11-24 14:45:21.602 -0800,207,C4D50155-580C-4885-BACB-A13DEF47355A,1511563520.987554,49.27913067250844,-122.9164787277226,346.0708,0.1437442,300.4366350211431,3,16,-9999,140126.542699,0.333251953125,-0.2072601318359375,-1.096694946289062,140126.514653,0.6127030856662791,-0.3686715097118112,-0.557483239411813
2017-11-24 14:45:21.639 -0800,208,C4D50155-580C-4885-BACB-A13DEF47355A,1511563520.987554,49.27913067250844,-122.9164787277226,346.0708,0.1437442,300.4366350211431,3,16,-9999,140126.572759,0.4022979736328125,-0.2704010009765625,-1.094375610351562,140126.544713,1.066263920388802,0.05719111809334263,-0.7767290414170224
2017-11-24 14:45:21.663 -0800,209,C4D50155-580C-4885-BACB-A13DEF47355A,1511563520.987554,49.27913067250844,-122.9164787277226,346.0708,0.1437442,300.4366350211431,3,16,-9999,140126.602818,0.4492034912109375,-0.3098602294921875,-1.079666137695312,140126.574742,1.217228402573252,0.23180606865435,-0.7001349305696895
2017-11-24 14:45:21.693 -0800,210,C4D50155-580C-4885-BACB-A13DEF47355A,1511563520.987554,49.27913067250844,-122.9164787277226,346.0708,0.1437442,300.4366350211431,3,16,-9999,140126.632878,0.42193603515625,-0.287567138671875,-0.9423980712890625,140126.604802,1.074802014843596,-0.08651731538507719,-0.4844508402063521
2017-11-24 14:45:21.723 -0800,211,C4D50155-580C-4885-BACB-A13DEF47355A,1511563520.987554,49.27913067250844,-122.9164787277226,346.0708,0.1437442,300.4366350211431,3,16,-9999,140126.662938,0.3448944091796875,-0.2429962158203125,-0.6959686279296875,140126.634862,1.098958750143378,-0.6640634788690022,-0.2918377143663712
2017-11-24 14:45:21.753 -0800,212,C4D50155-580C-4885-BACB-A13DEF47355A,1511563520.987554,49.27913067250844,-122.9164787277226,346.0708,0.1437442,300.4366350211431,3,16,-9999,140126.6929799167,0.2727203369140625,-0.231842041015625,-0.4688262939453125,140126.6649039167,1.275076522507517,-1.013632134081675,-0.2256150180682428
2017-11-24 14:45:21.798 -0800,213,C4D50155-580C-4885-BACB-A13DEF47355A,1511563520.987554,49.27913067250844,-122.9164787277226,346.0708,0.1437442,300.4366350211431,3,16,-9999,140126.7230399167,0.2431793212890625,-0.23443603515625,-0.392791748046875,140126.6949629167,1.348324904077383,-0.8812535868287793,-0.1697024836142472
2017-11-24 14:45:21.813 -0800,214,C4D50155-580C-4885-BACB-A13DEF47355A,1511563520.987554,49.27913067250844,-122.9164787277226,346.0708,0.1437442,300.4366350211431,3,16,-9999,140126.7530989167,0.261077880859375,-0.267547607421875,-0.40740966796875,140126.7250229167,1.167447263896946,-0.6761220059687719,-0.139581599053233
2017-11-24 14:45:21.843 -0800,215,C4D50155-580C-4885-BACB-A13DEF47355A,1511563520.987554,49.27913067250844,-122.9164787277226,346.0708,0.1437442,300.4366350211431,3,16,-9999,140126.7831589167,0.287261962890625,-0.328155517578125,-0.4596405029296875,140126.7550829167,0.8381135729628038,-0.5863601614276512,-0.07845033412711817
2017-11-24 14:45:21.877 -0800,216,C4D50155-580C-4885-BACB-A13DEF47355A,1511563520.987554,49.27913067250844,-122.9164787277226,346.0708,0.1437442,300.4366350211431,3,16,-9999,140126.8131889167,0.279449462890625,-0.336456298828125,-0.5185699462890625,140126.7851429167,0.4222109013184372,-0.5337086677284577,0.09053362862502569
2017-11-24 14:45:21.903 -0800,217,C4D50155-580C-4885-BACB-A13DEF47355A,1511563520.987554,49.27913067250844,-122.9164787277226,346.0708,0.1437442,300.4366350211431,3,16,-9999,140126.8432479167,0.2646484375,-0.335784912109375,-0.5499725341796875,140126.8152029167,-0.01518427927119578,-0.5191166754836956,0.2015986313579083
2017-11-24 14:45:21.933 -0800,218,C4D50155-580C-4885-BACB-A13DEF47355A,1511563520.987554,49.27913067250844,-122.9164787277226,346.0708,0.1437442,300.4366350211431,3,16,-9999,140126.8733079167,0.29437255859375,-0.3252716064453125,-0.6036376953125,140126.8452629167,-0.372259320332366,-0.2870062075167494,0.191304981112534
2017-11-24 14:45:21.963 -0800,219,C4D50155-580C-4885-BACB-A13DEF47355A,1511563520.987554,49.27913067250844,-122.9164787277226,346.0708,0.1437442,300.4366350211431,3,16,-9999,140126.9033679167,0.3748321533203125,-0.38531494140625,-0.69049072265625,140126.8753219167,-0.3505351163722626,0.2117852225274613,0.08762172828913305
2017-11-24 14:45:21.993 -0800,220,C4D50155-580C-4885-BACB-A13DEF47355A,1511563520.987554,49.27913067250844,-122.9164787277226,346.0708,0.1437442,300.4366350211431,3,16,-9999,140126.9334279167,0.5233917236328125,-0.4627532958984375,-0.9788818359375,140126.9053819167,-0.3660666718496047,0.9151849222774789,0.1464616094133437
2017-11-24 14:45:22.031 -0800,221,C4D50155-580C-4885-BACB-A13DEF47355A,1511563520.987554,49.27913067250844,-122.9164787277226,346.0708,0.1437442,300.4366350211431,3,16,-9999,140126.9634879167,0.6479644775390625,-0.40887451171875,-1.088592529296875,140126.9354419167,-0.9597798210469648,0.9768309762423061,0.2430523316216456
2017-11-24 14:45:22.053 -0800,222,C4D50155-580C-4885-BACB-A13DEF47355A,1511563520.987554,49.27913067250844,-122.9164787277226,346.0708,0.1437442,300.4366350211431,3,16,-9999,140126.9935469167,0.6158294677734375,-0.4363861083984375,-1.072250366210938,140126.9655019167,-0.6050334480429598,0.7425034266678691,0.3181721164895107
2017-11-24 14:45:22.083 -0800,223,C4D50155-580C-4885-BACB-A13DEF47355A,1511563520.987554,49.27913067250844,-122.9164787277226,346.0708,0.1437442,300.4366350211431,3,16,-9999,140127.0236069167,0.6467132568359375,-0.3271484375,-1.253143310546875,140126.9955619167,-0.9810456949834655,0.8567833974686953,0.3721187054268098
2017-11-24 14:45:22.116 -0800,224,C4D50155-580C-4885-BACB-A13DEF47355A,1511563520.987554,49.27913067250844,-122.9164787277226,346.0708,0.1437442,300.4366350211431,3,16,-9999,140127.0536669167,0.50115966796875,-0.1892547607421875,-0.911407470703125,140127.0256209167,-1.466020911608454,-0.3527213053111087,0.3442844109777377
2017-11-24 14:45:22.143 -0800,225,C4D50155-580C-4885-BACB-A13DEF47355A,1511563520.987554,49.27913067250844,-122.9164787277226,346.0708,0.1437442,300.4366350211431,3,16,-9999,140127.0837269167,0.4421539306640625,-0.311492919921875,-0.682952880859375,140127.0556809167,-0.6395043399285094,-0.2743596544482901,-0.05608563992485074
2017-11-24 14:45:22.174 -0800,226,C4D50155-580C-4885-BACB-A13DEF47355A,1511563521.987534,49.27913236486705,-122.9164753562752,346.0451,0.229706,273.5912048658116,3,16,-9999,140127.1137869167,0.593475341796875,-0.48260498046875,-0.9973602294921875,140127.0857409167,-0.2140734105360574,1.278284566356626,-0.2210205325556381
2017-11-24 14:45:22.204 -0800,227,C4D50155-580C-4885-BACB-A13DEF47355A,1511563521.987534,49.27913236486705,-122.9164753562752,346.0451,0.229706,273.5912048658116,3,16,-9999,140127.1438469167,0.5457916259765625,-0.4620513916015625,-1.090087890625,140127.1158009167,-0.7831861417960285,1.107103495705167,0.1402788146266158
2017-11-24 14:45:22.234 -0800,228,C4D50155-580C-4885-BACB-A13DEF47355A,1511563521.987534,49.27913236486705,-122.9164753562752,346.0451,0.229706,273.5912048658116,3,16,-9999,140127.1739059167,0.3585052490234375,-0.3741607666015625,-0.772918701171875,140127.1458609167,-1.227894362739019,-0.2036087853487001,0.3203303422369109
2017-11-24 14:45:22.279 -0800,229,C4D50155-580C-4885-BACB-A13DEF47355A,1511563521.987534,49.27913236486705,-122.9164753562752,346.0451,0.229706,273.5912048658116,3,16,-9999,140127.2039659167,0.240264892578125,-0.3624420166015625,-0.4833984375,140127.1759209167,-0.5952351457603403,-0.6048510215082894,0.2130049503067176
2017-11-24 14:45:22.294 -0800,230,C4D50155-580C-4885-BACB-A13DEF47355A,1511563521.987534,49.27913236486705,-122.9164753562752,346.0451,0.229706,273.5912048658116,3,16,-9999,140127.2340259167,0.1728668212890625,-0.3670196533203125,-0.33245849609375,140127.2059799167,0.2573529740431532,-0.3053644421751017,0.181627053711186
2017-11-24 14:45:22.324 -0800,231,C4D50155-580C-4885-BACB-A13DEF47355A,1511563521.987534,49.27913236486705,-122.9164753562752,346.0451,0.229706,273.5912048658116,3,16,-9999,140127.2640859167,0.166015625,-0.4087982177734375,-0.3141937255859375,140127.2360399167,0.4494329350329002,0.03482455967831215,0.1636640321586016
2017-11-24 14:45:22.357 -0800,232,C4D50155-580C-4885-BACB-A13DEF47355A,1511563521.987534,49.27913236486705,-122.9164753562752,346.0451,0.229706,273.5912048658116,3,16,-9999,140127.2941459167,0.23956298828125,-0.4459991455078125,-0.4444122314453125,140127.2660999167,0.02811605689240255,0.3487233678826817,0.1874764207294361
2017-11-24 14:45:22.384 -0800,233,C4D50155-580C-4885-BACB-A13DEF47355A,1511563521.987534,49.27913236486705,-122.9164753562752,346.0451,0.229706,273.5912048658116,3,16,-9999,140127.3242049167,0.3974761962890625,-0.48663330078125,-0.6907806396484375,140127.2961289167,-0.2259204826452749,0.6367785945528134,0.216445221802882
2017-11-24 14:45:22.414 -0800,234,C4D50155-580C-4885-BACB-A13DEF47355A,1511563521.987534,49.27913236486705,-122.9164753562752,346.0451,0.229706,273.5912048658116,3,16,-9999,140127.3542649167,0.538421630859375,-0.51385498046875,-1.06365966796875,140127.3261889167,-0.3574532099359615,0.8757600181321639,0.2422421980180435
2017-11-24 14:45:22.444 -0800,235,C4D50155-580C-4885-BACB-A13DEF47355A,1511563521.987534,49.27913236486705,-122.9164753562752,346.0451,0.229706,273.5912048658116,3,16,-9999,140127.3843249167,0.5194549560546875,-0.5081024169921875,-1.13836669921875,140127.3562489167,-0.2456017757331785,0.3662538920742373,0.2218098935027376
2017-11-24 14:45:22.474 -0800,236,C4D50155-580C-4885-BACB-A13DEF47355A,1511563521.987534,49.27913236486705,-122.9164753562752,346.0451,0.229706,273.5912048658116,3,16,-9999,140127.4143849167,0.4417572021484375,-0.5258331298828125,-1.069778442382812,140127.3863089167,-0.1768994101440774,-0.1960515331233822,0.1004821331931257
2017-11-24 14:45:22.527 -0800,237,C4D50155-580C-4885-BACB-A13DEF47355A,1511563521.987534,49.27913236486705,-122.9164753562752,346.0451,0.229706,273.5912048658116,3,16,-9999,140127.4624809167,0.3878021240234375,-0.490142822265625,-1.287109375,140127.4163689167,-0.402205501525871,-0.03728452157721834,-0.01284123014414407
2017-11-24 14:45:22.556 -0800,238,C4D50155-580C-4885-BACB-A13DEF47355A,1511563521.987534,49.27913236486705,-122.9164753562752,346.0451,0.229706,273.5912048658116,3,16,-9999,140127.4955619167,0.4391937255859375,-0.3883056640625,-1.655075073242188,140127.4644639167,-0.8172354552810186,0.5006274132997114,-0.08727924577294886
2017-11-24 14:45:22.591 -0800,239,C4D50155-580C-4885-BACB-A13DEF47355A,1511563521.987534,49.27913236486705,-122.9164753562752,346.0451,0.229706,273.5912048658116,3,16,-9999,140127.5285819167,0.4468841552734375,-0.279449462890625,-1.554244995117188,140127.4975759167,-0.4216164837631315,0.1021894857679755,-0.2957589527554039
2017-11-24 14:45:22.622 -0800,240,C4D50155-580C-4885-BACB-A13DEF47355A,1511563521.987534,49.27913236486705,-122.9164753562752,346.0451,0.229706,273.5912048658116,3,16,-9999,140127.5616929167,0.4357147216796875,-0.291656494140625,-1.32781982421875,140127.5305959167,0.7369283652418972,-0.3171137762723132,-0.4561558188886962
2017-11-24 14:45:22.654 -0800,241,C4D50155-580C-4885-BACB-A13DEF47355A,1511563521.987534,49.27913236486705,-122.9164753562752,346.0451,0.229706,273.5912048658116,3,16,-9999,140127.5947129167,0.454925537109375,-0.299774169921875,-1.151870727539062,140127.5636769167,1.247269924933782,-0.0699615081524906,-0.4599529539709312
2017-11-24 14:45:22.688 -0800,242,C4D50155-580C-4885-BACB-A13DEF47355A,1511563521.987534,49.27913236486705,-122.9164753562752,346.0451,0.229706,273.5912048658116,3,16,-9999,140127.6278249167,0.40771484375,-0.2864990234375,-0.872711181640625,140127.5967269167,1.205394113637267,-0.391583749834199,-0.3136740374083669
2017-11-24 14:45:22.720 -0800,243,C4D50155-580C-4885-BACB-A13DEF47355A,1511563521.987534,49.27913236486705,-122.9164753562752,346.0451,0.229706,273.5912048658116,3,16,-9999,140127.6608449167,0.3280792236328125,-0.24859619140625,-0.62713623046875,140127.6298079167,1.232558090439966,-0.7409590595517321,-0.1587414451996991
2017-11-24 14:45:22.757 -0800,244,C4D50155-580C-4885-BACB-A13DEF47355A,1511563521.987534,49.27913236486705,-122.9164753562752,346.0451,0.229706,273.5912048658116,3,16,-9999,140127.6939365,0.2606353759765625,-0.1815643310546875,-0.4439697265625,140127.6628589167,1.317638896733054,-0.9907454603057521,0.008137022394628105
2017-11-24 14:45:22.787 -0800,245,C4D50155-580C-4885-BACB-A13DEF47355A,1511563521.987534,49.27913236486705,-122.9164753562752,346.0451,0.229706,273.5912048658116,3,16,-9999,140127.7269565,0.248626708984375,-0.1771087646484375,-0.3637847900390625,140127.6959205,1.234367708400675,-1.024417137548169,-0.05410371544161377
2017-11-24 14:45:22.843 -0800,246,C4D50155-580C-4885-BACB-A13DEF47355A,1511563521.987534,49.27913236486705,-122.9164753562752,346.0451,0.229706,273.5912048658116,3,16,-9999,140127.7600685,0.2921905517578125,-0.2071075439453125,-0.389495849609375,140127.7289715,1.132573968370685,-0.754499635798131,-0.178701837569843
2017-11-24 14:45:22.853 -0800,247,C4D50155-580C-4885-BACB-A13DEF47355A,1511563521.987534,49.27913236486705,-122.9164753562752,346.0451,0.229706,273.5912048658116,3,16,-9999,140127.7930885,0.32965087890625,-0.2556304931640625,-0.4251251220703125,140127.7620525,0.9010347484575609,-0.6033002628055363,-0.1921880853300043
2017-11-24 14:45:22.887 -0800,248,C4D50155-580C-4885-BACB-A13DEF47355A,1511563521.987534,49.27913236486705,-122.9164753562752,346.0451,0.229706,273.5912048658116,3,16,-9999,140127.8261695,0.3853912353515625,-0.2851409912109375,-0.6422882080078125,140127.7951025,0.5072291233259089,-0.2066711542861822,-0.1889379635356715
2017-11-24 14:45:22.919 -0800,249,C4D50155-580C-4885-BACB-A13DEF47355A,1511563521.987534,49.27913236486705,-122.9164753562752,346.0451,0.229706,273.5912048658116,3,16,-9999,140127.8592205,0.3659515380859375,-0.2705078125,-0.68218994140625,140127.8281835,0.2133413075523946,-0.369469659090508,-0.1543488272977224
2017-11-24 14:45:22.953 -0800,250,C4D50155-580C-4885-BACB-A13DEF47355A,1511563521.987534,49.27913236486705,-122.9164753562752,346.0451,0.229706,273.5912048658116,3,16,-9999,140127.8923015,0.3050994873046875,-0.32696533203125,-0.6848602294921875,140127.8612345,0.01103321008008928,-0.8208746649106119,-0.2453218775026112
2017-11-24 14:45:23.002 -0800,251,C4D50155-580C-4885-BACB-A13DEF47355A,1511563521.987534,49.27913236486705,-122.9164753562752,346.0451,0.229706,273.5912048658116,3,16,-9999,140127.9253515,0.2948150634765625,-0.3805389404296875,-0.8368988037109375,140127.8943155,-0.443647217564703,-0.5321219563509885,-0.379587274387828
2017-11-24 14:45:23.019 -0800,252,C4D50155-580C-4885-BACB-A13DEF47355A,1511563521.987534,49.27913236486705,-122.9164753562752,346.0451,0.229706,273.5912048658116,3,16,-9999,140127.9584325,0.3563995361328125,-0.4281005859375,-0.9935760498046875,140127.9273655,-0.6725911869955449,-0.1920248335551824,-0.420221253668039
2017-11-24 14:45:23.051 -0800,253,C4D50155-580C-4885-BACB-A13DEF47355A,1511563521.987534,49.27913236486705,-122.9164753562752,346.0451,0.229706,273.5912048658116,3,16,-9999,140127.9914835,0.337982177734375,-0.567962646484375,-1.020095825195312,140127.9604465,-0.8143770844830365,-0.3689862953526586,-0.3647753050370253
2017-11-24 14:45:23.085 -0800,254,C4D50155-580C-4885-BACB-A13DEF47355A,1511563521.987534,49.27913236486705,-122.9164753562752,346.0451,0.229706,273.5912048658116,3,16,-9999,140128.0245645,0.4836883544921875,-0.346221923828125,-1.445159912109375,140127.9934975,-1.624261149891,0.6334693505822809,0.2458955224014142
2017-11-24 14:45:23.117 -0800,255,C4D50155-580C-4885-BACB-A13DEF47355A,1511563521.987534,49.27913236486705,-122.9164753562752,346.0451,0.229706,273.5912048658116,3,16,-9999,140128.0576145,0.3599853515625,-0.188934326171875,-1.0552978515625,140128.0265785,-1.685379365327774,-0.443579306956906,0.407012507293464
2017-11-24 14:45:23.154 -0800,256,C4D50155-580C-4885-BACB-A13DEF47355A,1511563522.987513,49.27913423082664,-122.9164664589316,346.0504,0.055171,252.0640058850621,3,16,-9999,140128.0906955,0.317413330078125,-0.4259185791015625,-0.6997222900390625,140128.0595985,-0.2991033504523253,-0.8988112752634537,-0.174668746415027
2017-11-24 14:45:23.183 -0800,257,C4D50155-580C-4885-BACB-A13DEF47355A,1511563522.987513,49.27913423082664,-122.9164664589316,346.0504,0.055171,252.0640058850621,3,16,-9999,140128.1237465,0.446197509765625,-0.56036376953125,-0.9119720458984375,140128.0927105,0.2579348747413355,0.5262169292659558,-0.3385426356675268
2017-11-24 14:45:23.217 -0800,258,C4D50155-580C-4885-BACB-A13DEF47355A,1511563522.987513,49.27913423082664,-122.9164664589316,346.0504,0.055171,252.0640058850621,3,16,-9999,140128.1568275,0.4223175048828125,-0.4064788818359375,-1.025543212890625,140128.1257305,-0.7101904942136106,0.4989296481047859,0.1710026388584239
2017-11-24 14:45:23.250 -0800,259,C4D50155-580C-4885-BACB-A13DEF47355A,1511563522.987513,49.27913423082664,-122.9164664589316,346.0504,0.055171,252.0640058850621,3,16,-9999,140128.1898785,0.2558441162109375,-0.2923126220703125,-0.7590179443359375,140128.1588415,-1.014449724536329,-0.5149957000129068,0.3426673395638415
2017-11-24 14:45:23.284 -0800,260,C4D50155-580C-4885-BACB-A13DEF47355A,1511563522.987513,49.27913423082664,-122.9164664589316,346.0504,0.055171,252.0640058850621,3,16,-9999,140128.2229595,0.1713409423828125,-0.3318939208984375,-0.56060791015625,140128.1918615,-0.1122596967978921,-0.7044135651770107,0.09406924128821488
2017-11-24 14:45:23.316 -0800,261,C4D50155-580C-4885-BACB-A13DEF47355A,1511563522.987513,49.27913423082664,-122.9164664589316,346.0504,0.055171,252.0640058850621,3,16,-9999,140128.2559795,0.146453857421875,-0.4004974365234375,-0.5234832763671875,140128.2249735,0.4249121456121046,-0.4178963140363999,-0.01761574534643813
2017-11-24 14:45:23.350 -0800,262,C4D50155-580C-4885-BACB-A13DEF47355A,1511563522.987513,49.27913423082664,-122.9164664589316,346.0504,0.055171,252.0640058850621,3,16,-9999,140128.2890905,0.1655426025390625,-0.438323974609375,-0.6137542724609375,140128.2579935,0.2871084729026085,-0.1544974316865488,0.008124239221395725
2017-11-24 14:45:23.394 -0800,263,C4D50155-580C-4885-BACB-A13DEF47355A,1511563522.987513,49.27913423082664,-122.9164664589316,346.0504,0.055171,252.0640058850621,3,16,-9999,140128.3221105,0.193603515625,-0.4566497802734375,-0.7831878662109375,140128.2910745,-0.03443653710748761,-0.1357852629193251,0.0330684712555139
2017-11-24 14:45:23.416 -0800,264,C4D50155-580C-4885-BACB-A13DEF47355A,1511563522.987513,49.27913423082664,-122.9164664589316,346.0504,0.055171,252.0640058850621,3,16,-9999,140128.3552225,0.2172088623046875,-0.46380615234375,-0.8866424560546875,140128.3241245,-0.1519890002558032,-0.2799474990474944,0.1135023277625231
2017-11-24 14:45:23.448 -0800,265,C4D50155-580C-4885-BACB-A13DEF47355A,1511563522.987513,49.27913423082664,-122.9164664589316,346.0504,0.055171,252.0640058850621,3,16,-9999,140128.3882425,0.1595458984375,-0.4349212646484375,-0.991851806640625,140128.3572055,0.1043058998862615,-0.4821772995837514,0.1571014706004283
2017-11-24 14:45:23.482 -0800,266,C4D50155-580C-4885-BACB-A13DEF47355A,1511563522.987513,49.27913423082664,-122.9164664589316,346.0504,0.055171,252.0640058850621,3,16,-9999,140128.4213535,0.20819091796875,-0.4891510009765625,-1.114700317382812,140128.3902565,0.0256542307807333,-0.4444309858735134,-0.1250295542248221
2017-11-24 14:45:23.514 -0800,267,C4D50155-580C-4885-BACB-A13DEF47355A,1511563522.987513,49.27913423082664,-122.9164664589316,346.0504,0.055171,252.0640058850621,3,16,-9999,140128.4543735,0.222198486328125,-0.5775299072265625,-1.17156982421875,140128.4233375,-0.09983391978380041,-0.3696230571692966,-0.2920134829983164
2017-11-24 14:45:23.551 -0800,268,C4D50155-580C-4885-BACB-A13DEF47355A,1511563522.987513,49.27913423082664,-122.9164664589316,346.0504,0.055171,252.0640058850621,3,16,-9999,140128.4874855,0.26947021484375,-0.4467315673828125,-1.544509887695312,140128.4563885,-0.5344676686391302,0.08302750909263736,-0.09263219956400813
2017-11-24 14:45:23.580 -0800,269,C4D50155-580C-4885-BACB-A13DEF47355A,1511563522.987513,49.27913423082664,-122.9164664589316,346.0504,0.055171,252.0640058850621,3,16,-9999,140128.5205055,0.297210693359375,-0.1699981689453125,-1.557479858398438,140128.4894695,-0.8211263336336243,0.5014703037847215,0.05941618918410384
2017-11-24 14:45:23.614 -0800,270,C4D50155-580C-4885-BACB-A13DEF47355A,1511563522.987513,49.27913423082664,-122.9164664589316,346.0504,0.055171,252.0640058850621,3,16,-9999,140128.5535865,0.103424072265625,-0.2293701171875,-1.068191528320312,140128.5225195,0.7921727125783918,-0.5732797794176181,-0.2377318683958853
2017-11-24 14:45:23.646 -0800,271,C4D50155-580C-4885-BACB-A13DEF47355A,1511563522.987513,49.27913423082664,-122.9164664589316,346.0504,0.055171,252.0640058850621,3,16,-9999,140128.5866375,0.060211181640625,-0.2398223876953125,-0.8805389404296875,140128.5556005,0.9424687413292316,-0.3538310445373447,-0.335458695125215
2017-11-24 14:45:23.680 -0800,272,C4D50155-580C-4885-BACB-A13DEF47355A,1511563522.987513,49.27913423082664,-122.9164664589316,346.0504,0.055171,252.0640058850621,3,16,-9999,140128.6197185,0.1217803955078125,-0.22222900390625,-0.9075775146484375,140128.5886515,0.2171826511087249,0.1147050113108029,-0.3860198736848054
2017-11-24 14:45:23.713 -0800,273,C4D50155-580C-4885-BACB-A13DEF47355A,1511563522.987513,49.27913423082664,-122.9164664589316,346.0504,0.055171,252.0640058850621,3,16,-9999,140128.6527685,0.10333251953125,-0.1683197021484375,-0.772796630859375,140128.6217325,0.1223701215602689,0.04679440351378229,-0.2464883420600659
2017-11-24 14:45:23.746 -0800,274,C4D50155-580C-4885-BACB-A13DEF47355A,1511563522.987513,49.27913423082664,-122.9164664589316,346.0504,0.055171,252.0640058850621,3,16,-9999,140128.6858579167,0.035888671875,-0.1655120849609375,-0.5330657958984375,140128.6547825,0.4486467698791088,-0.3741882479099104,-0.1851072726237016
2017-11-24 14:45:23.795 -0800,275,C4D50155-580C-4885-BACB-A13DEF47355A,1511563522.987513,49.27913423082664,-122.9164664589316,346.0504,0.055171,252.0640058850621,3,16,-9999,140128.7189089167,0.03485107421875,-0.20086669921875,-0.4337005615234375,140128.6878719167,0.4319948225311703,-0.4238788391091539,-0.275933848968636
2017-11-24 14:45:23.812 -0800,276,C4D50155-580C-4885-BACB-A13DEF47355A,1511563522.987513,49.27913423082664,-122.9164664589316,346.0504,0.055171,252.0640058850621,3,16,-9999,140128.7519899167,0.0963897705078125,-0.2565765380859375,-0.49700927734375,140128.7209229167,0.2649022367852008,-0.1210414704924284,-0.3250862153115744
2017-11-24 14:45:23.845 -0800,277,C4D50155-580C-4885-BACB-A13DEF47355A,1511563522.987513,49.27913423082664,-122.9164664589316,346.0504,0.055171,252.0640058850621,3,16,-9999,140128.7850399167,0.09912109375,-0.27099609375,-0.5327606201171875,140128.7540039167,0.2250323184217335,-0.05433967151419479,-0.1757063139757219
2017-11-24 14:45:23.879 -0800,278,C4D50155-580C-4885-BACB-A13DEF47355A,1511563522.987513,49.27913423082664,-122.9164664589316,346.0504,0.055171,252.0640058850621,3,16,-9999,140128.8181209167,0.0964813232421875,-0.30560302734375,-0.6119232177734375,140128.7870239167,-0.07422416379327143,-0.01765675802722535,-0.1396716138980777
2017-11-24 14:45:23.911 -0800,279,C4D50155-580C-4885-BACB-A13DEF47355A,1511563522.987513,49.27913423082664,-122.9164664589316,346.0504,0.055171,252.0640058850621,3,16,-9999,140128.8511719167,0.1109619140625,-0.35247802734375,-0.7172088623046875,140128.8201359167,-0.2153900773789926,0.1567344870022154,-0.1854641362097722
2017-11-24 14:45:23.957 -0800,280,C4D50155-580C-4885-BACB-A13DEF47355A,1511563522.987513,49.27913423082664,-122.9164664589316,346.0504,0.055171,252.0640058850621,3,16,-9999,140128.8842529167,0.101531982421875,-0.4404754638671875,-0.78607177734375,140128.8531559167,-0.2550783681561165,0.2428826882602076,-0.2614995158604065
2017-11-24 14:45:23.977 -0800,281,C4D50155-580C-4885-BACB-A13DEF47355A,1511563522.987513,49.27913423082664,-122.9164664589316,346.0504,0.055171,252.0640058850621,3,16,-9999,140128.9173039167,0.27984619140625,-0.533538818359375,-1.145614624023438,140128.8862669167,-0.4199711828416806,0.8502743654484326,-0.3407184382781215
2017-11-24 14:45:24.011 -0800,282,C4D50155-580C-4885-BACB-A13DEF47355A,1511563522.987513,49.27913423082664,-122.9164664589316,346.0504,0.055171,252.0640058850621,3,16,-9999,140128.9503849167,0.486480712890625,-0.502105712890625,-1.547958374023438,140128.9192869167,-1.075465408271135,1.658876385107632,-0.1541320459849899
2017-11-24 14:45:24.043 -0800,283,C4D50155-580C-4885-BACB-A13DEF47355A,1511563522.987513,49.27913423082664,-122.9164664589316,346.0504,0.055171,252.0640058850621,3,16,-9999,140128.9834049167,0.4753875732421875,-0.3464508056640625,-1.561050415039062,140128.9523989167,-1.268186658451373,1.301069773695017,0.2796116744340354
2017-11-24 14:45:24.077 -0800,284,C4D50155-580C-4885-BACB-A13DEF47355A,1511563522.987513,49.27913423082664,-122.9164664589316,346.0504,0.055171,252.0640058850621,3,16,-9999,140129.0165159167,0.4839019775390625,-0.10546875,-1.59515380859375,140128.9854189167,-1.382115091988309,1.011293612328476,0.5192887156901146
2017-11-24 14:45:24.114 -0800,285,C4D50155-580C-4885-BACB-A13DEF47355A,1511563522.987513,49.27913423082664,-122.9164664589316,346.0504,0.055171,252.0640058850621,3,16,-9999,140129.0495359167,0.2806243896484375,-0.01702880859375,-0.99127197265625,140129.0184999167,-0.5341022829375713,-0.7167485283979307,0.4425209667397085
2017-11-24 14:45:24.143 -0800,286,C4D50155-580C-4885-BACB-A13DEF47355A,1511563522.987513,49.27913423082664,-122.9164664589316,346.0504,0.055171,252.0640058850621,3,16,-9999,140129.0826479167,0.3067626953125,-0.2862701416015625,-0.7796783447265625,140129.0515499167,0.7477567782341593,-0.7812771879266597,-0.1497191880587287
2017-11-24 14:45:24.175 -0800,287,C4D50155-580C-4885-BACB-A13DEF47355A,1511563523.987493,49.27913532762996,-122.9164743754793,346.0837,0.09905954,243.7310384938632,3,16,-9999,140129.1156679167,0.5493927001953125,-0.40399169921875,-1.066375732421875,140129.0846309167,0.65766976172394,0.927254634653827,-0.2078826262660592
2017-11-24 14:45:24.209 -0800,288,C4D50155-580C-4885-BACB-A13DEF47355A,1511563523.987493,49.27913532762996,-122.9164743754793,346.0837,0.09905954,243.7310384938632,3,16,-9999,140129.1487789167,0.3503265380859375,-0.2540740966796875,-0.8728179931640625,140129.1176819167,0.1817879086410268,0.2385475946377766,0.5431383885162102
2017-11-24 14:45:24.242 -0800,289,C4D50155-580C-4885-BACB-A13DEF47355A,1511563523.987493,49.27913532762996,-122.9164743754793,346.0837,0.09905954,243.7310384938632,3,16,-9999,140129.1817989167,0.156036376953125,-0.1799774169921875,-0.5353240966796875,140129.1507629167,-0.1667170800322684,-0.9309665485811794,0.5317485811661593
2017-11-24 14:45:24.277 -0800,290,C4D50155-580C-4885-BACB-A13DEF47355A,1511563523.987493,49.27913532762996,-122.9164743754793,346.0837,0.09905954,243.7310384938632,3,16,-9999,140129.2149109167,0.1073455810546875,-0.23974609375,-0.4018096923828125,140129.1838139167,0.1416894910560307,-0.7952955352726188,0.1793708236356709
2017-11-24 14:45:24.308 -0800,291,C4D50155-580C-4885-BACB-A13DEF47355A,1511563523.987493,49.27913532762996,-122.9164743754793,346.0837,0.09905954,243.7310384938632,3,16,-9999,140129.2479309167,0.105926513671875,-0.2935028076171875,-0.424713134765625,140129.2168949167,0.4703970728178949,-0.2758273225250328,-0.01324176957209199
2017-11-24 14:45:24.358 -0800,292,C4D50155-580C-4885-BACB-A13DEF47355A,1511563523.987493,49.27913532762996,-122.9164743754793,346.0837,0.09905954,243.7310384938632,3,16,-9999,140129.2810119167,0.120147705078125,-0.3220367431640625,-0.48223876953125,140129.2499449167,0.3658347105186588,-0.01770629282350082,-0.05283818129160812
2017-11-24 14:45:24.374 -0800,293,C4D50155-580C-4885-BACB-A13DEF47355A,1511563523.987493,49.27913532762996,-122.9164743754793,346.0837,0.09905954,243.7310384938632,3,16,-9999,140129.3140629167,0.164642333984375,-0.3863372802734375,-0.5634307861328125,140129.2830259167,0.1734889660521219,0.1249842804862907,-0.1092247584196378
2017-11-24 14:45:24.408 -0800,294,C4D50155-580C-4885-BACB-A13DEF47355A,1511563523.987493,49.27913532762996,-122.9164743754793,346.0837,0.09905954,243.7310384938632,3,16,-9999,140129.3471439167,0.276580810546875,-0.4611968994140625,-0.82611083984375,140129.3160769167,0.1687762361871177,0.5112622144807248,-0.1456030062779022
2017-11-24 14:45:24.441 -0800,295,C4D50155-580C-4885-BACB-A13DEF47355A,1511563523.987493,49.27913532762996,-122.9164743754793,346.0837,0.09905954,243.7310384938632,3,16,-9999,140129.3801939167,0.2973785400390625,-0.466461181640625,-1.112899780273438,140129.3491579167,0.2155911460412936,0.4347013931470178,-0.1045088327613255
2017-11-24 14:45:24.474 -0800,296,C4D50155-580C-4885-BACB-A13DEF47355A,1511563523.987493,49.27913532762996,-122.9164743754793,346.0837,0.09905954,243.7310384938632,3,16,-9999,140129.4132749167,0.351318359375,-0.5444183349609375,-1.371444702148438,140129.3822079167,-0.1353615539898935,-0.1521533172950611,-0.215572237597554
2017-11-24 14:45:24.513 -0800,297,C4D50155-580C-4885-BACB-A13DEF47355A,1511563523.987493,49.27913532762996,-122.9164743754793,346.0837,0.09905954,243.7310384938632,3,16,-9999,140129.4463259167,0.4340362548828125,-0.5200958251953125,-1.566268920898438,140129.4152889167,-0.03161465161643964,-0.05903349293545945,-0.2027949233195719
2017-11-24 14:45:24.540 -0800,298,C4D50155-580C-4885-BACB-A13DEF47355A,1511563523.987493,49.27913532762996,-122.9164743754793,346.0837,0.09905954,243.7310384938632,3,16,-9999,140129.4794069167,0.349456787109375,-0.5123138427734375,-1.49029541015625,140129.4483399167,0.2062410537701344,-0.4830761164516532,-0.0941336897865948
2017-11-24 14:45:24.574 -0800,299,C4D50155-580C-4885-BACB-A13DEF47355A,1511563523.987493,49.27913532762996,-122.9164743754793,346.0837,0.09905954,243.7310384938632,3,16,-9999,140129.5124569167,0.371551513671875,-0.426910400390625,-1.401214599609375,140129.4814209167,0.2123301052864915,0.04963226797137073,-0.1522928669361812
2017-11-24 14:45:24.607 -0800,300,C4D50155-580C-4885-BACB-A13DEF47355A,1511563523.987493,49.27913532762996,-122.9164743754793,346.0837,0.09905954,243.7310384938632,3,16,-9999,140129.5455379167,0.2343902587890625,-0.3995361328125,-0.9855804443359375,140129.5144409167,1.095455628045487,-0.2591141224720225,-0.05376123292542958
2017-11-24 14:45:24.640 -0800,301,C4D50155-580C-4885-BACB-A13DEF47355A,1511563523.987493,49.27913532762996,-122.9164743754793,346.0837,0.09905954,243.7310384938632,3,16,-9999,140129.5785889167,0.2343292236328125,-0.3761138916015625,-0.9058074951171875,140129.5475529167,0.8670437582004435,0.1465231284345246,0.06210971031060998
2017-11-24 14:45:24.682 -0800,302,C4D50155-580C-4885-BACB-A13DEF47355A,1511563523.987493,49.27913532762996,-122.9164743754793,346.0837,0.09905954,243.7310384938632,3,16,-9999,140129.6116699167,0.27593994140625,-0.2714385986328125,-0.8865509033203125,140129.5805729167,0.1016275587779688,0.5425498299153028,0.3020354908125026
2017-11-24 14:45:24.704 -0800,303,C4D50155-580C-4885-BACB-A13DEF47355A,1511563523.987493,49.27913532762996,-122.9164743754793,346.0837,0.09905954,243.7310384938632,3,16,-9999,140129.6447209167,0.2087860107421875,-0.1544647216796875,-0.7206573486328125,140129.6136839167,-0.04370779981038046,0.2094083512545656,0.4984867644155057
2017-11-24 14:45:24.740 -0800,304,C4D50155-580C-4885-BACB-A13DEF47355A,1511563523.987493,49.27913532762996,-122.9164743754793,346.0837,0.09905954,243.7310384938632,3,16,-9999,140129.677786,0.1368255615234375,-0.12542724609375,-0.52764892578125,140129.6467039167,0.2300023096480394,-0.1283286781832122,0.320869366041543
2017-11-24 14:45:24.771 -0800,305,C4D50155-580C-4885-BACB-A13DEF47355A,1511563523.987493,49.27913532762996,-122.9164743754793,346.0837,0.09905954,243.7310384938632,3,16,-9999,140129.710836,0.1378173828125,-0.1855316162109375,-0.4330291748046875,140129.6798,0.5635523172199947,-0.129563852296791,-0.04519970265304284
2017-11-24 14:45:24.805 -0800,306,C4D50155-580C-4885-BACB-A13DEF47355A,1511563523.987493,49.27913532762996,-122.9164743754793,346.0837,0.09905954,243.7310384938632,3,16,-9999,140129.743917,0.14544677734375,-0.2308349609375,-0.4212646484375,140129.71282,0.6841383871660195,-0.04790973537830748,-0.1895393053098114
2017-11-24 14:45:24.839 -0800,307,C4D50155-580C-4885-BACB-A13DEF47355A,1511563523.987493,49.27913532762996,-122.9164743754793,346.0837,0.09905954,243.7310384938632,3,16,-9999,140129.776937,0.14959716796875,-0.249267578125,-0.4474945068359375,140129.745901,0.4845304687229455,-0.04968020487099216,-0.1304853060339584
2017-11-24 14:45:24.871 -0800,308,C4D50155-580C-4885-BACB-A13DEF47355A,1511563523.987493,49.27913532762996,-122.9164743754793,346.0837,0.09905954,243.7310384938632,3,16,-9999,140129.810049,0.1421051025390625,-0.2877349853515625,-0.558135986328125,140129.778951,0.1577720545629103,-0.1095142440301294,-0.07817549590262199
2017-11-24 14:45:24.920 -0800,309,C4D50155-580C-4885-BACB-A13DEF47355A,1511563523.987493,49.27913532762996,-122.9164743754793,346.0837,0.09905954,243.7310384938632,3,16,-9999,140129.843069,0.1346588134765625,-0.2945709228515625,-0.740997314453125,140129.812032,-0.1667580927130556,-0.1513160194483402,-0.02578099724862108
2017-11-24 14:45:24.937 -0800,310,C4D50155-580C-4885-BACB-A13DEF47355A,1511563523.987493,49.27913532762996,-122.9164743754793,346.0837,0.09905954,243.7310384938632,3,16,-9999,140129.87618,0.1557464599609375,-0.407806396484375,-0.79913330078125,140129.845083,-0.3194983707123702,-0.2811834721094002,-0.2192868146859965
2017-11-24 14:45:24.969 -0800,311,C4D50155-580C-4885-BACB-A13DEF47355A,1511563523.987493,49.27913532762996,-122.9164743754793,346.0837,0.09905954,243.7310384938632,3,16,-9999,140129.9092,0.308380126953125,-0.45831298828125,-1.144638061523438,140129.878164,-0.3006940565714297,0.4222409950387551,-0.2257503066516189
2017-11-24 14:45:25.003 -0800,312,C4D50155-580C-4885-BACB-A13DEF47355A,1511563523.987493,49.27913532762996,-122.9164743754793,346.0837,0.09905954,243.7310384938632,3,16,-9999,140129.942312,0.4204559326171875,-0.5015411376953125,-1.414276123046875,140129.911215,-0.6532971175301389,0.5841894188231277,-0.1553033042324068
2017-11-24 14:45:25.035 -0800,313,C4D50155-580C-4885-BACB-A13DEF47355A,1511563523.987493,49.27913532762996,-122.9164743754793,346.0837,0.09905954,243.7310384938632,3,16,-9999,140129.975332,0.4800262451171875,-0.4635467529296875,-1.523193359375,140129.944296,-1.349110003966739,0.4485663424141884,0.03570446810247433
2017-11-24 14:45:25.074 -0800,314,C4D50155-580C-4885-BACB-A13DEF47355A,1511563523.987493,49.27913532762996,-122.9164743754793,346.0837,0.09905954,243.7310384938632,3,16,-9999,140130.008413,0.480316162109375,-0.3303375244140625,-1.555923461914062,140129.977346,-1.47763762028338,0.3467411770833357,0.1989919292829387
2017-11-24 14:45:25.101 -0800,315,C4D50155-580C-4885-BACB-A13DEF47355A,1511563523.987493,49.27913532762996,-122.9164743754793,346.0837,0.09905954,243.7310384938632,3,16,-9999,140130.041464,0.32135009765625,-0.21563720703125,-0.880401611328125,140130.010427,-0.7610851005416789,-0.9534473566069743,0.1410335544795442
2017-11-24 14:45:25.135 -0800,316,C4D50155-580C-4885-BACB-A13DEF47355A,1511563523.987493,49.27913532762996,-122.9164743754793,346.0837,0.09905954,243.7310384938632,3,16,-9999,140130.074545,0.2634735107421875,-0.497344970703125,-0.5593719482421875,140130.043478,0.6130982987720468,-0.9790656347129916,-0.3590074307481317
2017-11-24 14:45:25.167 -0800,317,C4D50155-580C-4885-BACB-A13DEF47355A,1511563524.987473,49.27913541789914,-122.916480448259,346.045,0.06111455,229.1815880899554,3,16,-9999,140130.107595,0.42034912109375,-0.616058349609375,-0.8237762451171875,140130.076559,0.6523775280057345,0.9156890586718309,-0.2686287980985486
2017-11-24 14:45:25.201 -0800,318,C4D50155-580C-4885-BACB-A13DEF47355A,1511563524.987473,49.27913541789914,-122.916480448259,346.045,0.06111455,229.1815880899554,3,16,-9999,140130.140676,0.4442291259765625,-0.4157562255859375,-1.023117065429688,140130.109609,-0.2694509159270561,1.207306795932162,0.473324685804219
2017-11-24 14:45:25.233 -0800,319,C4D50155-580C-4885-BACB-A13DEF47355A,1511563524.987473,49.27913541789914,-122.916480448259,346.045,0.06111455,229.1815880899554,3,16,-9999,140130.173727,0.2612457275390625,-0.255096435546875,-0.722412109375,140130.14269,-0.8939078630643998,-0.2135165435521219,0.7593306100155347
2017-11-24 14:45:25.267 -0800,320,C4D50155-580C-4885-BACB-A13DEF47355A,1511563524.987473,49.27913541789914,-122.916480448259,346.045,0.06111455,229.1815880899554,3,16,-9999,140130.206808,0.1483917236328125,-0.2906036376953125,-0.47149658203125,140130.175741,-0.04120469470181498,-0.6774586465198827,0.4006768470601655
2017-11-24 14:45:25.313 -0800,321,C4D50155-580C-4885-BACB-A13DEF47355A,1511563524.987473,49.27913541789914,-122.916480448259,346.045,0.06111455,229.1815880899554,3,16,-9999,140130.239858,0.0917205810546875,-0.3083648681640625,-0.4042205810546875,140130.208822,0.5396376632633011,-0.3167190957987635,0.2580725601696925
2017-11-24 14:45:25.334 -0800,322,C4D50155-580C-4885-BACB-A13DEF47355A,1511563524.987473,49.27913541789914,-122.916480448259,346.045,0.06111455,229.1815880899554,3,16,-9999,140130.272939,0.0836944580078125,-0.3497314453125,-0.467620849609375,140130.241842,0.2741982668862313,-0.1176139821694964,0.1898359814552463
2017-11-24 14:45:25.366 -0800,323,C4D50155-580C-4885-BACB-A13DEF47355A,1511563524.987473,49.27913541789914,-122.916480448259,346.045,0.06111455,229.1815880899554,3,16,-9999,140130.30599,0.157501220703125,-0.35931396484375,-0.6651458740234375,140130.274954,-0.2135743341477766,0.1191575503373064,0.09737422420100322
2017-11-24 14:45:25.402 -0800,324,C4D50155-580C-4885-BACB-A13DEF47355A,1511563524.987473,49.27913541789914,-122.916480448259,346.045,0.06111455,229.1815880899554,3,16,-9999,140130.339071,0.2191619873046875,-0.4155120849609375,-0.7966156005859375,140130.307974,-0.1085131617763686,0.0532946471024477,-0.001876995936287847
2017-11-24 14:45:25.432 -0800,325,C4D50155-580C-4885-BACB-A13DEF47355A,1511563524.987473,49.27913541789914,-122.916480448259,346.045,0.06111455,229.1815880899554,3,16,-9999,140130.372122,0.286834716796875,-0.5278778076171875,-0.92742919921875,140130.341085,0.0353204402732849,-0.1283126992166717,-0.09643679149729532
2017-11-24 14:45:25.483 -0800,326,C4D50155-580C-4885-BACB-A13DEF47355A,1511563524.987473,49.27913541789914,-122.916480448259,346.045,0.06111455,229.1815880899554,3,16,-9999,140130.405203,0.3958740234375,-0.5489501953125,-1.300933837890625,140130.374105,-0.2948430916565256,0.1852497517420208,0.01414085275610274
2017-11-24 14:45:25.498 -0800,327,C4D50155-580C-4885-BACB-A13DEF47355A,1511563524.987473,49.27913541789914,-122.916480448259,346.045,0.06111455,229.1815880899554,3,16,-9999,140130.438253,0.4141998291015625,-0.474517822265625,-1.465301513671875,140130.407217,-0.6327966360909268,0.1104649925392877,0.1449079212333915
2017-11-24 14:45:25.532 -0800,328,C4D50155-580C-4885-BACB-A13DEF47355A,1511563524.987473,49.27913541789914,-122.916480448259,346.045,0.06111455,229.1815880899554,3,16,-9999,140130.471334,0.2017822265625,-0.4302825927734375,-1.381591796875,140130.440237,-0.6374180195305413,-0.8401636743699468,0.1223221846606475
2017-11-24 14:45:25.564 -0800,329,C4D50155-580C-4885-BACB-A13DEF47355A,1511563524.987473,49.27913541789914,-122.916480448259,346.045,0.06111455,229.1815880899554,3,16,-9999,140130.504354,0.3363037109375,-0.25341796875,-1.549484252929688,140130.473318,-0.7073574234459843,0.3094798250076011,-0.1388854487442863
2017-11-24 14:45:25.598 -0800,330,C4D50155-580C-4885-BACB-A13DEF47355A,1511563524.987473,49.27913541789914,-122.916480448259,346.045,0.06111455,229.1815880899554,3,16,-9999,140130.537466,0.278961181640625,-0.2535247802734375,-1.162033081054688,140130.506368,0.9223104760900949,0.1842726379380707,-0.4142967855070487
2017-11-24 14:45:25.638 -0800,331,C4D50155-580C-4885-BACB-A13DEF47355A,1511563524.987473,49.27913541789914,-122.916480448259,346.045,0.06111455,229.1815880899554,3,16,-9999,140130.570486,0.2115631103515625,-0.354583740234375,-0.8477783203125,140130.539449,1.625517362977191,-0.1607348212756234,-0.6233437458016906
2017-11-24 14:45:25.664 -0800,332,C4D50155-580C-4885-BACB-A13DEF47355A,1511563524.987473,49.27913541789914,-122.916480448259,346.045,0.06111455,229.1815880899554,3,16,-9999,140130.603597,0.2226715087890625,-0.3361663818359375,-0.87744140625,140130.5725,0.6824733788525019,0.2517246493953797,-0.4632345010661268
2017-11-24 14:45:25.696 -0800,333,C4D50155-580C-4885-BACB-A13DEF47355A,1511563524.987473,49.27913541789914,-122.916480448259,346.045,0.06111455,229.1815880899554,3,16,-9999,140130.636617,0.180023193359375,-0.205352783203125,-0.8310699462890625,140130.605581,0.01101749742965781,0.2187368719208952,-0.1237001042086545
2017-11-24 14:45:25.730 -0800,334,C4D50155-580C-4885-BACB-A13DEF47355A,1511563524.987473,49.27913541789914,-122.916480448259,346.045,0.06111455,229.1815880899554,3,16,-9999,140130.669713,0.0947265625,-0.1909332275390625,-0.617034912109375,140130.638632,0.2534599651616753,-0.2338401910949525,-0.09478669688588223
2017-11-24 14:45:25.763 -0800,335,C4D50155-580C-4885-BACB-A13DEF47355A,1511563524.987473,49.27913541789914,-122.916480448259,346.045,0.06111455,229.1815880899554,3,16,-9999,140130.702733,0.0675811767578125,-0.2262420654296875,-0.4846343994140625,140130.671697,0.54618797428046,-0.283160070270457,-0.1830848680918954
2017-11-24 14:45:25.798 -0800,336,C4D50155-580C-4885-BACB-A13DEF47355A,1511563524.987473,49.27913541789914,-122.916480448259,346.045,0.06111455,229.1815880899554,3,16,-9999,140130.735814,0.0934295654296875,-0.2664794921875,-0.48199462890625,140130.704747,0.5668988454457882,-0.09757156443777809,-0.154602892865716
2017-11-24 14:45:25.828 -0800,337,C4D50155-580C-4885-BACB-A13DEF47355A,1511563524.987473,49.27913541789914,-122.916480448259,346.045,0.06111455,229.1815880899554,3,16,-9999,140130.768865,0.1376953125,-0.29058837890625,-0.53936767578125,140130.737828,0.3005989817205139,-0.003786216121765653,-0.04124810422758327
2017-11-24 14:45:25.878 -0800,338,C4D50155-580C-4885-BACB-A13DEF47355A,1511563524.987473,49.27913541789914,-122.916480448259,346.045,0.06111455,229.1815880899554,3,16,-9999,140130.801946,0.15283203125,-0.25970458984375,-0.6357421875,140130.770879,0.1322658955387854,-0.1468259298504666,0.07228245304249466
2017-11-24 14:45:25.895 -0800,339,C4D50155-580C-4885-BACB-A13DEF47355A,1511563524.987473,49.27913541789914,-122.916480448259,346.045,0.06111455,229.1815880899554,3,16,-9999,140130.834996,0.1149444580078125,-0.2500457763671875,-0.6975555419921875,140130.80396,-0.002524144081177102,-0.4944211826953907,-0.005493568696615453
2017-11-24 14:45:25.929 -0800,340,C4D50155-580C-4885-BACB-A13DEF47355A,1511563524.987473,49.27913541789914,-122.916480448259,346.045,0.06111455,229.1815880899554,3,16,-9999,140130.868077,0.1031951904296875,-0.3565673828125,-0.6038818359375,140130.83701,0.1582602119907218,-0.6545224379476843,-0.3092009920414698
2017-11-24 14:45:25.961 -0800,341,C4D50155-580C-4885-BACB-A13DEF47355A,1511563524.987473,49.27913541789914,-122.916480448259,346.045,0.06111455,229.1815880899554,3,16,-9999,140130.901128,0.196319580078125,-0.52984619140625,-0.9034576416015625,140130.870091,0.1148227230309844,0.07472164228489822,-0.4560732608949037
2017-11-24 14:45:25.995 -0800,342,C4D50155-580C-4885-BACB-A13DEF47355A,1511563524.987473,49.27913541789914,-122.916480448259,346.045,0.06111455,229.1815880899554,3,16,-9999,140130.934209,0.368408203125,-0.4642333984375,-1.407623291015625,140130.903142,-0.747980217449617,0.906919801834418,-0.1360678243109825
2017-11-24 14:45:26.038 -0800,343,C4D50155-580C-4885-BACB-A13DEF47355A,1511563524.987473,49.27913541789914,-122.916480448259,346.045,0.06111455,229.1815880899554,3,16,-9999,140130.967259,0.3980560302734375,-0.511810302734375,-1.496200561523438,140130.936223,-1.134730596221431,0.4122813051940768,-0.1359011104267435
2017-11-24 14:45:26.061 -0800,344,C4D50155-580C-4885-BACB-A13DEF47355A,1511563524.987473,49.27913541789914,-122.916480448259,346.045,0.06111455,229.1815880899554,3,16,-9999,140131.00034,0.3989410400390625,-0.4327545166015625,-1.63690185546875,140130.969243,-1.55826455596942,0.2737780200662168,0.1547850530842774
2017-11-24 14:45:26.093 -0800,345,C4D50155-580C-4885-BACB-A13DEF47355A,1511563524.987473,49.27913541789914,-122.916480448259,346.045,0.06111455,229.1815880899554,3,16,-9999,140131.033391,0.3651275634765625,-0.336212158203125,-1.341964721679688,140131.002355,-1.079803697686874,0.0485456982466184,0.346009606731891
2017-11-24 14:45:26.127 -0800,346,C4D50155-580C-4885-BACB-A13DEF47355A,1511563524.987473,49.27913541789914,-122.916480448259,346.045,0.06111455,229.1815880899554,3,16,-9999,140131.066472,0.2208709716796875,-0.3893890380859375,-0.6989593505859375,140131.035375,0.4365059511016556,-0.9347719394627937,0.06855988647078189
2017-11-24 14:45:26.159 -0800,347,C4D50155-580C-4885-BACB-A13DEF47355A,1511563525.987453,49.27913669981625,-122.9164823778724,346.0124,0.2046254,215.4899138231529,3,16,-9999,140131.099523,0.306732177734375,-0.43585205078125,-0.84228515625,140131.068486,0.7583170109046505,0.03151291886279862,-0.1964848294327381
2017-11-24 14:45:26.196 -0800,348,C4D50155-580C-4885-BACB-A13DEF47355A,1511563525.987453,49.27913669981625,-122.9164823778724,346.0124,0.2046254,215.4899138231529,3,16,-9999,140131.132604,0.3875885009765625,-0.2779388427734375,-1.064483642578125,140131.101506,-0.1281798074782768,0.7500942347229219,0.2142710170889413
2017-11-24 14:45:26.226 -0800,349,C4D50155-580C-4885-BACB-A13DEF47355A,1511563525.987453,49.27913669981625,-122.9164823778724,346.0124,0.2046254,215.4899138231529,3,16,-9999,140131.165654,0.244171142578125,-0.1451873779296875,-0.82318115234375,140131.134618,-0.4122424230421616,-0.1409416754219365,0.4791314422450278
2017-11-24 14:45:26.278 -0800,350,C4D50155-580C-4885-BACB-A13DEF47355A,1511563525.987453,49.27913669981625,-122.9164823778724,346.0124,0.2046254,215.4899138231529,3,16,-9999,140131.198735,0.1592864990234375,-0.2245941162109375,-0.5110931396484375,140131.167638,0.2548112530987815,-0.756047198707576,0.02309226981207707
2017-11-24 14:45:26.292 -0800,351,C4D50155-580C-4885-BACB-A13DEF47355A,1511563525.987453,49.27913669981625,-122.9164823778724,346.0124,0.2046254,215.4899138231529,3,16,-9999,140131.231755,0.1511077880859375,-0.327667236328125,-0.3998565673828125,140131.200749,0.7298379651556702,-0.4096791304929603,-0.279966407491234
2017-11-24 14:45:26.326 -0800,352,C4D50155-580C-4885-BACB-A13DEF47355A,1511563525.987453,49.27913669981625,-122.9164823778724,346.0124,0.2046254,215.4899138231529,3,16,-9999,140131.264867,0.0806121826171875,-0.369384765625,-0.320587158203125,140131.233769,0.7399707604712037,-0.3047484530149663,-0.2231595835431898
2017-11-24 14:45:26.369 -0800,353,C4D50155-580C-4885-BACB-A13DEF47355A,1511563525.987453,49.27913669981625,-122.9164823778724,346.0124,0.2046254,215.4899138231529,3,16,-9999,140131.297887,0.0393218994140625,-0.372161865234375,-0.406280517578125,140131.26685,0.2801528287675395,-0.1702638779720359,-0.07818721381141834
2017-11-24 14:45:26.392 -0800,354,C4D50155-580C-4885-BACB-A13DEF47355A,1511563525.987453,49.27913669981625,-122.9164823778724,346.0124,0.2046254,215.4899138231529,3,16,-9999,140131.330998,0.1889495849609375,-0.35479736328125,-0.7772216796875,140131.299901,-0.4386977326787908,0.3553602316352682,-0.004060255397934806
2017-11-24 14:45:26.437 -0800,355,C4D50155-580C-4885-BACB-A13DEF47355A,1511563525.987453,49.27913669981625,-122.9164823778724,346.0124,0.2046254,215.4899138231529,3,16,-9999,140131.364018,0.3284454345703125,-0.464599609375,-1.041854858398438,140131.332982,-0.5107964276060699,0.4024782092214951,-0.1807593958280382
2017-11-24 14:45:26.458 -0800,356,C4D50155-580C-4885-BACB-A13DEF47355A,1511563525.987453,49.27913669981625,-122.9164823778724,346.0124,0.2046254,215.4899138231529,3,16,-9999,140131.39713,0.287628173828125,-0.5841064453125,-0.9603424072265625,140131.366033,-0.07041264764115002,-0.2711774432617545,-0.1859440378382045
2017-11-24 14:45:26.490 -0800,357,C4D50155-580C-4885-BACB-A13DEF47355A,1511563525.987453,49.27913669981625,-122.9164823778724,346.0124,0.2046254,215.4899138231529,3,16,-9999,140131.43015,0.3054656982421875,-0.55987548828125,-1.18060302734375,140131.399114,-0.3255948790797796,-0.1192206672551412,0.03091770235916591
2017-11-24 14:45:26.524 -0800,358,C4D50155-580C-4885-BACB-A13DEF47355A,1511563525.987453,49.27913669981625,-122.9164823778724,346.0124,0.2046254,215.4899138231529,3,16,-9999,140131.463262,0.4243621826171875,-0.5479583740234375,-1.444915771484375,140131.432164,-0.5567543322214583,0.3026240494134101,-0.03827495118661881
2017-11-24 14:45:26.556 -0800,359,C4D50155-580C-4885-BACB-A13DEF47355A,1511563525.987453,49.27913669981625,-122.9164823778724,346.0124,0.2046254,215.4899138231529,3,16,-9999,140131.496282,0.3437347412109375,-0.539703369140625,-1.398284912109375,140131.465245,-0.2817326159261745,-0.2145887322069878,-0.1120764713148947
2017-11-24 14:45:26.595 -0800,360,C4D50155-580C-4885-BACB-A13DEF47355A,1511563525.987453,49.27913669981625,-122.9164823778724,346.0124,0.2046254,215.4899138231529,3,16,-9999,140131.529363,0.3359222412109375,-0.3723297119140625,-1.271392822265625,140131.498296,-0.02156095218528151,0.1362957909002933,-0.2829651268786632
2017-11-24 14:45:26.622 -0800,361,C4D50155-580C-4885-BACB-A13DEF47355A,1511563525.987453,49.27913669981625,-122.9164823778724,346.0124,0.2046254,215.4899138231529,3,16,-9999,140131.562413,0.1743316650390625,-0.3591461181640625,-0.82257080078125,140131.531377,1.249287802091735,-0.2747503401802048,-0.4550921523493185
2017-11-24 14:45:26.656 -0800,362,C4D50155-580C-4885-BACB-A13DEF47355A,1511563525.987453,49.27913669981625,-122.9164823778724,346.0124,0.2046254,215.4899138231529,3,16,-9999,140131.595494,0.1745147705078125,-0.3794708251953125,-0.81842041015625,140131.564427,1.207344346503532,0.224210466909335,-0.5769679912112687
2017-11-24 14:45:26.688 -0800,363,C4D50155-580C-4885-BACB-A13DEF47355A,1511563525.987453,49.27913669981625,-122.9164823778724,346.0124,0.2046254,215.4899138231529,3,16,-9999,140131.628545,0.266876220703125,-0.3386993408203125,-1.022018432617188,140131.597508,0.2918765965182863,0.9263014892996877,-0.4390476720460272
2017-11-24 14:45:26.722 -0800,364,C4D50155-580C-4885-BACB-A13DEF47355A,1511563525.987453,49.27913669981625,-122.9164823778724,346.0124,0.2046254,215.4899138231529,3,16,-9999,140131.661626,0.2497406005859375,-0.25762939453125,-0.9877166748046875,140131.630559,0.1101653869166538,0.7352633569283796,-0.1429552915221454
2017-11-24 14:45:26.758 -0800,365,C4D50155-580C-4885-BACB-A13DEF47355A,1511563525.987453,49.27913669981625,-122.9164823778724,346.0124,0.2046254,215.4899138231529,3,16,-9999,140131.69466175,0.1307525634765625,-0.2354278564453125,-0.6905059814453125,140131.66364,0.3798256273053901,-0.036903423225228,-0.009021724508752427
2017-11-24 14:45:26.788 -0800,366,C4D50155-580C-4885-BACB-A13DEF47355A,1511563525.987453,49.27913669981625,-122.9164823778724,346.0124,0.2046254,215.4899138231529,3,16,-9999,140131.72774275,0.0991668701171875,-0.2640533447265625,-0.4961700439453125,140131.69667575,0.4673781134061811,-0.3076230690955978,-0.03145406300270787
2017-11-24 14:45:26.838 -0800,367,C4D50155-580C-4885-BACB-A13DEF47355A,1511563525.987453,49.27913669981625,-122.9164823778724,346.0124,0.2046254,215.4899138231529,3,16,-9999,140131.76079375,0.1199798583984375,-0.288177490234375,-0.4882354736328125,140131.72975775,0.4547747035473811,-0.1421305105325479,0.003808320358813311
2017-11-24 14:45:26.854 -0800,368,C4D50155-580C-4885-BACB-A13DEF47355A,1511563525.987453,49.27913669981625,-122.9164823778724,346.0124,0.2046254,215.4899138231529,3,16,-9999,140131.79387475,0.1386871337890625,-0.3052978515625,-0.5037841796875,140131.76277775,0.4099651539940349,-0.09023402300239178,0.1286003206144003
2017-11-24 14:45:26.887 -0800,369,C4D50155-580C-4885-BACB-A13DEF47355A,1511563525.987453,49.27913669981625,-122.9164823778724,346.0124,0.2046254,215.4899138231529,3,16,-9999,140131.82692575,0.1367950439453125,-0.3361358642578125,-0.56817626953125,140131.79588875,0.2309099149475384,-0.1854430972371606,0.202697984255893
2017-11-24 14:45:26.921 -0800,370,C4D50155-580C-4885-BACB-A13DEF47355A,1511563525.987453,49.27913669981625,-122.9164823778724,346.0124,0.2046254,215.4899138231529,3,16,-9999,140131.86000675,0.1505279541015625,-0.376068115234375,-0.664520263671875,140131.82890875,-0.06371240065461967,-0.1881531299624252,0.3195505686697357
2017-11-24 14:45:26.953 -0800,371,C4D50155-580C-4885-BACB-A13DEF47355A,1511563525.987453,49.27913669981625,-122.9164823778724,346.0124,0.2046254,215.4899138231529,3,16,-9999,140131.89305675,0.214324951171875,-0.4026947021484375,-0.846282958984375,140131.86202075,-0.31028276807626,-0.07510833327517773,0.3003768740856013
