loggingTime(txt),loggingSample(N),identifierForVendor(txt),locationTimestamp_since1970(s),locationLatitude(WGS84),locationLongitude(WGS84),locationAltitude(m),locationSpeed(m/s),locationCourse(°),locationVerticalAccuracy(m),locationHorizontalAccuracy(m),locationFloor(Z),accelerometerTimestamp_sinceReboot(s),accelerometerAccelerationX(G),accelerometerAccelerationY(G),accelerometerAccelerationZ(G),gyroTimestamp_sinceReboot(s),gyroRotationX(rad/s),gyroRotationY(rad/s),gyroRotationZ(rad/s)
2017-11-24 14:46:48.455 -0800,1,C4D50155-580C-4885-BACB-A13DEF47355A,1511563607.985769,49.27912729172672,-122.9162792905685,347.0102,0.0219581,145.3442125565804,3,16,-9999,140213.39631625,0.399505615234375,0.0254058837890625,-0.9244384765625,140213.36524925,0.04073757624661508,0.09749726224336489,0.01694090032621205
2017-11-24 14:46:48.487 -0800,2,C4D50155-580C-4885-BACB-A13DEF47355A,1511563607.985769,49.27912729172672,-122.9162792905685,347.0102,0.0219581,145.3442125565804,3,16,-9999,140213.42936625,0.39434814453125,0.00762939453125,-0.91937255859375,140213.39833025,0.0264707559709516,0.07212905496370609,-0.0248611414081077
2017-11-24 14:46:48.521 -0800,3,C4D50155-580C-4885-BACB-A13DEF47355A,1511563607.985769,49.27912729172672,-122.9162792905685,347.0102,0.0219581,145.3442125565804,3,16,-9999,140213.46244725,0.403411865234375,-0.0066070556640625,-0.9216766357421875,140213.43138025,-0.004270378807942059,0.04994146097392893,-0.04143559076832485
2017-11-24 14:46:48.554 -0800,4,C4D50155-580C-4885-BACB-A13DEF47355A,1511563607.985769,49.27912729172672,-122.9162792905685,347.0102,0.0219581,145.3442125565804,3,16,-9999,140213.49549825,0.4071502685546875,-0.00775146484375,-0.91888427734375,140213.46446125,-0.02162300383868036,0.06162368341167052,-0.02364833784768562
2017-11-24 14:46:48.588 -0800,5,C4D50155-580C-4885-BACB-A13DEF47355A,1511563607.985769,49.27912729172672,-122.9162792905685,347.0102,0.0219581,145.3442125565804,3,16,-9999,140213.52857925,0.4083099365234375,-0.0006866455078125,-0.9168853759765625,140213.49748125,0.005398227529590616,0.05514261458285368,0.011931494315773
2017-11-24 14:46:48.620 -0800,6,C4D50155-580C-4885-BACB-A13DEF47355A,1511563607.985769,49.27912729172672,-122.9162792905685,347.0102,0.0219581,145.3442125565804,3,16,-9999,140213.56162925,0.4035491943359375,0.001983642578125,-0.9110260009765625,140213.53059325,0.02642628118074727,0.04022305352401177,0.02398283088059957
2017-11-24 14:46:48.654 -0800,7,C4D50155-580C-4885-BACB-A13DEF47355A,1511563607.985769,49.27912729172672,-122.9162792905685,347.0102,0.0219581,145.3442125565804,3,16,-9999,140213.59471025,0.39300537109375,0.0102386474609375,-0.89923095703125,140213.56361325,-0.007725297690101854,0.0286319111955509,0.02119663174815867
2017-11-24 14:46:48.686 -0800,8,C4D50155-580C-4885-BACB-A13DEF47355A,1511563607.985769,49.27912729172672,-122.9162792905685,347.0102,0.0219581,145.3442125565804,3,16,-9999,140213.62776125,0.4017333984375,0.01715087890625,-0.9055023193359375,140213.59672525,-0.0223705531566656,0.05202032452084478,0.01247424654593115
2017-11-24 14:46:48.720 -0800,9,C4D50155-580C-4885-BACB-A13DEF47355A,1511563607.985769,49.27912729172672,-122.9162792905685,347.0102,0.0219581,145.3442125565804,3,16,-9999,140213.66084225,0.4063262939453125,0.0091400146484375,-0.9201812744140625,140213.62974525,-0.0008093346552750805,0.06047479571741033,0.003321494511546826
2017-11-24 14:46:48.753 -0800,10,C4D50155-580C-4885-BACB-A13DEF47355A,1511563607.985769,49.27912729172672,-122.9162792905685,347.0102,0.0219581,145.3442125565804,3,16,-9999,140213.69386225,0.4129638671875,0.0045013427734375,-0.921112060546875,140213.66285625,-0.02302142972708097,0.06478192614839548,-0.005586779334768226
2017-11-24 14:46:48.786 -0800,11,C4D50155-580C-4885-BACB-A13DEF47355A,1511563607.985769,49.27912729172672,-122.9162792905685,347.0102,0.0219581,145.3442125565804,3,16,-9999,140213.72697425,0.396270751953125,0.0050506591796875,-0.9159393310546875,140213.69587625,-0.01879419412879819,0.02234658470685489,-0.01518268137454174
2017-11-24 14:46:48.822 -0800,12,C4D50155-580C-4885-BACB-A13DEF47355A,1511563607.985769,49.27912729172672,-122.9162792905685,347.0102,0.0219581,145.3442125565804,3,16,-9999,140213.7599825,0.4170989990234375,0.0159759521484375,-0.919464111328125,140213.72895725,-0.009226521596579522,0.07853262580480161,0.00214597520638585
2017-11-24 14:46:48.853 -0800,13,C4D50155-580C-4885-BACB-A13DEF47355A,1511563607.985769,49.27912729172672,-122.9162792905685,347.0102,0.0219581,145.3442125565804,3,16,-9999,140213.7930935,0.4087066650390625,0.0049285888671875,-0.9051666259765625,140213.7619965,0.0519367012626163,0.01585113480815162,-0.03303438279356088
2017-11-24 14:46:48.885 -0800,14,C4D50155-580C-4885-BACB-A13DEF47355A,1511563607.985769,49.27912729172672,-122.9162792905685,347.0102,0.0219581,145.3442125565804,3,16,-9999,140213.8261135,0.414947509765625,0.00897216796875,-0.910797119140625,140213.7950775,0.03779132113266042,0.05616207264813602,-0.007674164997172333
2017-11-24 14:46:48.919 -0800,15,C4D50155-580C-4885-BACB-A13DEF47355A,1511563607.985769,49.27912729172672,-122.9162792905685,347.0102,0.0219581,145.3442125565804,3,16,-9999,140213.8592255,0.411224365234375,0.0047760009765625,-0.8989105224609375,140213.8281275,0.007958324285483787,0.01168781507603075,-0.02215856553389529
2017-11-24 14:46:48.951 -0800,16,C4D50155-580C-4885-BACB-A13DEF47355A,1511563607.985769,49.27912729172672,-122.9162792905685,347.0102,0.0219581,145.3442125565804,3,16,-9999,140213.8922455,0.4120635986328125,-0.013824462890625,-0.900390625,140213.8612085,-0.003267166025309209,0.03402561135128838,-0.04251896469976908
2017-11-24 14:46:48.985 -0800,17,C4D50155-580C-4885-BACB-A13DEF47355A,1511563607.985769,49.27912729172672,-122.9162792905685,347.0102,0.0219581,145.3442125565804,3,16,-9999,140213.9253265,0.415679931640625,-0.008087158203125,-0.9082794189453125,140213.8942595,0.006548713120504847,0.03605653799858281,0.002335059643781476
2017-11-24 14:46:49.017 -0800,18,C4D50155-580C-4885-BACB-A13DEF47355A,1511563607.985769,49.27912729172672,-122.9162792905685,347.0102,0.0219581,145.3442125565804,3,16,-9999,140213.9583765,0.415496826171875,-0.003692626953125,-0.9064788818359375,140213.9273405,-0.019392606425739,0.02548165794209617,0.01671932532351746
2017-11-24 14:46:49.051 -0800,19,C4D50155-580C-4885-BACB-A13DEF47355A,1511563607.985769,49.27912729172672,-122.9162792905685,347.0102,0.0219581,145.3442125565804,3,16,-9999,140213.9914575,0.421234130859375,0.0037994384765625,-0.9137115478515625,140213.9603915,-0.01585539586589575,0.04671211183609884,0.005137237742762851
2017-11-24 14:46:49.083 -0800,20,C4D50155-580C-4885-BACB-A13DEF47355A,1511563607.985769,49.27912729172672,-122.9162792905685,347.0102,0.0219581,145.3442125565804,3,16,-9999,140214.0245085,0.41448974609375,0.014495849609375,-0.9107513427734375,140213.9934725,0.00386744253501307,0.01374670491477101,0.02456553052710891
2017-11-24 14:46:49.117 -0800,21,C4D50155-580C-4885-BACB-A13DEF47355A,1511563607.985769,49.27912729172672,-122.9162792905685,347.0102,0.0219581,145.3442125565804,3,16,-9999,140214.0575895,0.41448974609375,0.0061187744140625,-0.90875244140625,140214.0265225,-0.02205550119970923,0.01068273808063485,-0.01527109832273237
2017-11-24 14:46:49.149 -0800,22,C4D50155-580C-4885-BACB-A13DEF47355A,1511563607.985769,49.27912729172672,-122.9162792905685,347.0102,0.0219581,145.3442125565804,3,16,-9999,140214.0906405,0.4214935302734375,0.0003814697265625,-0.90252685546875,140214.0596035,0.001637045122071708,0.01488999997074203,-0.02545822212450347
2017-11-24 14:46:49.183 -0800,23,C4D50155-580C-4885-BACB-A13DEF47355A,1511563607.985769,49.27912729172672,-122.9162792905685,347.0102,0.0219581,145.3442125565804,3,16,-9999,140214.1237215,0.426177978515625,-0.007965087890625,-0.9107666015625,140214.0926235,0.03468474372108299,0.04663141805506944,-0.01519919297330023
2017-11-24 14:46:49.216 -0800,24,C4D50155-580C-4885-BACB-A13DEF47355A,1511563608.985749,49.27912892817619,-122.9162828579396,347.0845,0.1019427,147.9630710089034,3,16,-9999,140214.1567715,0.431884765625,0.0009002685546875,-0.9064178466796875,140214.1257355,0.01373711753484673,0.02223073719943644,0.01306972936567287
2017-11-24 14:46:49.249 -0800,25,C4D50155-580C-4885-BACB-A13DEF47355A,1511563608.985749,49.27912892817619,-122.9162828579396,347.0845,0.1019427,147.9630710089034,3,16,-9999,140214.1898525,0.4080352783203125,-0.0167694091796875,-0.88494873046875,140214.1587555,-0.01003399203909155,0.003254915484294845,-0.03208310165218458
2017-11-24 14:46:49.281 -0800,26,C4D50155-580C-4885-BACB-A13DEF47355A,1511563608.985749,49.27912892817619,-122.9162828579396,347.0845,0.1019427,147.9630710089034,3,16,-9999,140214.2229035,0.42877197265625,-0.0017852783203125,-0.90576171875,140214.1918665,-0.005398227529590616,0.04985357665795632,0.0170367741254549
2017-11-24 14:46:49.315 -0800,27,C4D50155-580C-4885-BACB-A13DEF47355A,1511563608.985749,49.27912892817619,-122.9162828579396,347.0845,0.1019427,147.9630710089034,3,16,-9999,140214.2559845,0.42974853515625,0.0033721923828125,-0.9085693359375,140214.2248865,-0.02146055101218552,0.05730856349741513,0.02207547490788482
2017-11-24 14:46:49.347 -0800,28,C4D50155-580C-4885-BACB-A13DEF47355A,1511563608.985749,49.27912892817619,-122.9162828579396,347.0845,0.1019427,147.9630710089034,3,16,-9999,140214.2890045,0.4232330322265625,-0.004547119140625,-0.905303955078125,140214.2579985,-0.01476270087063624,0.02443982932365717,-0.00234091859817965
2017-11-24 14:46:49.382 -0800,29,C4D50155-580C-4885-BACB-A13DEF47355A,1511563608.985749,49.27912892817619,-122.9162828579396,347.0845,0.1019427,147.9630710089034,3,16,-9999,140214.3221155,0.4177093505859375,0.0006561279296875,-0.9027252197265625,140214.2910185,-0.01177916150142047,0.04562714000800056,0.0147816093143758
2017-11-24 14:46:49.414 -0800,30,C4D50155-580C-4885-BACB-A13DEF47355A,1511563608.985749,49.27912892817619,-122.9162828579396,347.0845,0.1019427,147.9630710089034,3,16,-9999,140214.3551355,0.4190826416015625,-0.007781982421875,-0.9101409912109375,140214.3240995,0.01165612345905881,0.04769322038168404,0.01734676607634012
2017-11-24 14:46:49.448 -0800,31,C4D50155-580C-4885-BACB-A13DEF47355A,1511563608.985749,49.27912892817619,-122.9162828579396,347.0845,0.1019427,147.9630710089034,3,16,-9999,140214.3882475,0.41802978515625,-0.006805419921875,-0.9078216552734375,140214.3571505,-0.01098101212272372,0.04136155489002065,0.02754827094799766
2017-11-24 14:46:49.480 -0800,32,C4D50155-580C-4885-BACB-A13DEF47355A,1511563608.985749,49.27912892817619,-122.9162828579396,347.0845,0.1019427,147.9630710089034,3,16,-9999,140214.4212675,0.412750244140625,-0.00787353515625,-0.9012603759765625,140214.3902315,-0.02915602129807849,0.01382420290249232,0.02182833355872547
2017-11-24 14:46:49.514 -0800,33,C4D50155-580C-4885-BACB-A13DEF47355A,1511563608.985749,49.27912892817619,-122.9162828579396,347.0845,0.1019427,147.9630710089034,3,16,-9999,140214.4543795,0.4091949462890625,-0.0006256103515625,-0.8975830078125,140214.4232815,-0.04631103977593291,0.008552741840789474,0.02468910120168858
2017-11-24 14:46:49.546 -0800,34,C4D50155-580C-4885-BACB-A13DEF47355A,1511563608.985749,49.27912892817619,-122.9162828579396,347.0845,0.1019427,147.9630710089034,3,16,-9999,140214.4873995,0.4213714599609375,0.0013275146484375,-0.9080352783203125,140214.4563625,-0.02646356543600838,0.04992228621408036,0.002821885491047961
2017-11-24 14:46:49.580 -0800,35,C4D50155-580C-4885-BACB-A13DEF47355A,1511563608.985749,49.27912892817619,-122.9162828579396,347.0845,0.1019427,147.9630710089034,3,16,-9999,140214.5204805,0.4271087646484375,-0.003631591796875,-0.915985107421875,140214.4894135,0.01169527192708297,0.0317877570872948,0.01092801521703115
2017-11-24 14:46:49.612 -0800,36,C4D50155-580C-4885-BACB-A13DEF47355A,1511563608.985749,49.27912892817619,-122.9162828579396,347.0845,0.1019427,147.9630710089034,3,16,-9999,140214.5535305,0.42236328125,-0.0054931640625,-0.9106597900390625,140214.5224945,-0.01590200118497214,0.01064918225089985,-0.002395247084417267
2017-11-24 14:46:49.646 -0800,37,C4D50155-580C-4885-BACB-A13DEF47355A,1511563608.985749,49.27912892817619,-122.9162828579396,347.0845,0.1019427,147.9630710089034,3,16,-9999,140214.5866115,0.426910400390625,-0.001922607421875,-0.906524658203125,140214.5555445,-0.04115169779612241,0.01073387077356437,-0.02094150091572908
2017-11-24 14:46:49.678 -0800,38,C4D50155-580C-4885-BACB-A13DEF47355A,1511563608.985749,49.27912892817619,-122.9162828579396,347.0845,0.1019427,147.9630710089034,3,16,-9999,140214.6196625,0.4312896728515625,-0.00531005859375,-0.916046142578125,140214.5886255,-0.007195861265394101,0.00852238180436257,-0.01181111943450142
2017-11-24 14:46:49.712 -0800,39,C4D50155-580C-4885-BACB-A13DEF47355A,1511563608.985749,49.27912892817619,-122.9162828579396,347.0845,0.1019427,147.9630710089034,3,16,-9999,140214.6527435,0.42877197265625,-0.0132293701171875,-0.9015045166015625,140214.6216765,0.008845955876807197,0.001065797068249711,-0.01578668630977171
2017-11-24 14:46:49.745 -0800,40,C4D50155-580C-4885-BACB-A13DEF47355A,1511563608.985749,49.27912892817619,-122.9162828579396,347.0845,0.1019427,147.9630710089034,3,16,-9999,140214.6857935,0.4204864501953125,-0.01251220703125,-0.894989013671875,140214.6547575,0.0009938917188175717,-0.02546168423392057,-0.003233610195574211
2017-11-24 14:46:49.781 -0800,41,C4D50155-580C-4885-BACB-A13DEF47355A,1511563608.985749,49.27912892817619,-122.9162828579396,347.0845,0.1019427,147.9630710089034,3,16,-9999,140214.7188745,0.42181396484375,-0.0029144287109375,-0.901458740234375,140214.6877775,-0.04077858892740231,0.01916197667533813,0.01737233242280489
2017-11-24 14:46:49.811 -0800,42,C4D50155-580C-4885-BACB-A13DEF47355A,1511563608.985749,49.27912892817619,-122.9162828579396,347.0845,0.1019427,147.9630710089034,3,16,-9999,140214.7519155,0.425933837890625,-0.0047454833984375,-0.9072265625,140214.7208895,-0.008417186941304441,0.006391586616190171,-0.004394215798630743
2017-11-24 14:46:49.845 -0800,43,C4D50155-580C-4885-BACB-A13DEF47355A,1511563608.985749,49.27912892817619,-122.9162828579396,347.0845,0.1019427,147.9630710089034,3,16,-9999,140214.7849965,0.4299468994140625,0.0018157958984375,-0.9081268310546875,140214.7538995,0.01384151344957783,0.03814738577040402,0.01204654287486443
2017-11-24 14:46:49.877 -0800,44,C4D50155-580C-4885-BACB-A13DEF47355A,1511563608.985749,49.27912892817619,-122.9162828579396,347.0845,0.1019427,147.9630710089034,3,16,-9999,140214.8180475,0.4249114990234375,0.00189208984375,-0.897857666015625,140214.7870105,0.05842043325252321,-0.003332413472016151,0.01277039005914796
2017-11-24 14:46:49.911 -0800,45,C4D50155-580C-4885-BACB-A13DEF47355A,1511563608.985749,49.27912892817619,-122.9162828579396,347.0845,0.1019427,147.9630710089034,3,16,-9999,140214.8511285,0.427642822265625,-0.0285186767578125,-0.88165283203125,140214.8200305,0.06539232267024164,0.004121774419115637,-0.01473420504697239
2017-11-24 14:46:49.943 -0800,46,C4D50155-580C-4885-BACB-A13DEF47355A,1511563608.985749,49.27912892817619,-122.9162828579396,347.0845,0.1019427,147.9630710089034,3,16,-9999,140214.8841485,0.4399566650390625,-0.0533447265625,-0.8775177001953125,140214.8531425,0.05229303221646889,0.02109623057506269,0.005271461061702844
2017-11-24 14:46:49.977 -0800,47,C4D50155-580C-4885-BACB-A13DEF47355A,1511563608.985749,49.27912892817619,-122.9162828579396,347.0845,0.1019427,147.9630710089034,3,16,-9999,140214.9172595,0.4277801513671875,-0.0128021240234375,-0.8925323486328125,140214.8861625,-0.01028139970435991,0.03382108057957029,0.09986214929135524
2017-11-24 14:46:50.009 -0800,48,C4D50155-580C-4885-BACB-A13DEF47355A,1511563608.985749,49.27912892817619,-122.9162828579396,347.0845,0.1019427,147.9630710089034,3,16,-9999,140214.9502795,0.41461181640625,0.016754150390625,-0.9145660400390625,140214.9192435,-0.1401469881526569,0.04049709280018093,0.08577935344701623
2017-11-24 14:46:50.043 -0800,49,C4D50155-580C-4885-BACB-A13DEF47355A,1511563608.985749,49.27912892817619,-122.9162828579396,347.0845,0.1019427,147.9630710089034,3,16,-9999,140214.9833915,0.4179840087890625,0.0137481689453125,-0.93603515625,140214.9522935,-0.1064303034878177,0.07873955342150077,0.007794539878443914
2017-11-24 14:46:50.075 -0800,50,C4D50155-580C-4885-BACB-A13DEF47355A,1511563608.985749,49.27912892817619,-122.9162828579396,347.0845,0.1019427,147.9630710089034,3,16,-9999,140215.0164115,0.41607666015625,0.002777099609375,-0.932525634765625,140214.9853745,0.02933871414885793,0.05194522337810455,-0.0131581463138635
2017-11-24 14:46:50.109 -0800,51,C4D50155-580C-4885-BACB-A13DEF47355A,1511563608.985749,49.27912892817619,-122.9162828579396,347.0845,0.1019427,147.9630710089034,3,16,-9999,140215.0495225,0.4207611083984375,0.0021209716796875,-0.9206085205078125,140215.0184255,0.0984828981628032,0.005110073499644042,-0.01518374663897777
2017-11-24 14:46:50.141 -0800,52,C4D50155-580C-4885-BACB-A13DEF47355A,1511563608.985749,49.27912892817619,-122.9162828579396,347.0845,0.1019427,147.9630710089034,3,16,-9999,140215.0825425,0.43206787109375,-0.010009765625,-0.90203857421875,140215.0515065,0.05962471469745704,0.007367102523486197,-0.04673847713089063
2017-11-24 14:46:50.175 -0800,53,C4D50155-580C-4885-BACB-A13DEF47355A,1511563608.985749,49.27912892817619,-122.9162828579396,347.0845,0.1019427,147.9630710089034,3,16,-9999,140215.1156235,0.4420928955078125,-0.0190887451171875,-0.89361572265625,140215.0845575,0.05127277520285954,-0.01275041635097237,-0.06183061102836968
2017-11-24 14:46:50.207 -0800,54,C4D50155-580C-4885-BACB-A13DEF47355A,1511563609.985728,49.27912930064034,-122.9162853110252,347.0677,0.1301327,154.763084403163,3,16,-9999,140215.1486745,0.4195709228515625,-0.0442657470703125,-0.8663330078125,140215.1176385,0.0669268360903453,-0.0159949455070159,-0.04453284711608701
2017-11-24 14:46:50.241 -0800,55,C4D50155-580C-4885-BACB-A13DEF47355A,1511563609.985728,49.27912930064034,-122.9162853110252,347.0677,0.1301327,154.763084403163,3,16,-9999,140215.1817555,0.4216461181640625,-0.03961181640625,-0.8790130615234375,140215.1506885,0.05779192723526451,-0.009659285273717398,-0.01171737616413063
2017-11-24 14:46:50.273 -0800,56,C4D50155-580C-4885-BACB-A13DEF47355A,1511563609.985728,49.27912930064034,-122.9162853110252,347.0677,0.1301327,154.763084403163,3,16,-9999,140215.2148065,0.4414215087890625,-0.0110015869140625,-0.908660888671875,140215.1837695,-0.04708495438870994,0.09130221691562256,0.0323190577247656
2017-11-24 14:46:50.307 -0800,57,C4D50155-580C-4885-BACB-A13DEF47355A,1511563609.985728,49.27912930064034,-122.9162853110252,347.0677,0.1301327,154.763084403163,3,16,-9999,140215.2478875,0.42620849609375,-0.0012664794921875,-0.90435791015625,140215.2168205,-0.02371864530046371,-0.005269863165048796,0.01124759454784065
2017-11-24 14:46:50.342 -0800,58,C4D50155-580C-4885-BACB-A13DEF47355A,1511563609.985728,49.27912930064034,-122.9162853110252,347.0677,0.1301327,154.763084403163,3,16,-9999,140215.2809375,0.42742919921875,-0.002655029296875,-0.91009521484375,140215.2499015,0.006550577333267902,0.02863271014387792,0.0001901497018316576
2017-11-24 14:46:50.373 -0800,59,C4D50155-580C-4885-BACB-A13DEF47355A,1511563609.985728,49.27912930064034,-122.9162853110252,347.0677,0.1301327,154.763084403163,3,16,-9999,140215.3140185,0.4360198974609375,-0.0199737548828125,-0.9142913818359375,140215.2829215,0.05171113151828658,0.02749980141615821,-0.01812121332133517
2017-11-24 14:46:50.406 -0800,60,C4D50155-580C-4885-BACB-A13DEF47355A,1511563609.985728,49.27912930064034,-122.9162853110252,347.0677,0.1301327,154.763084403163,3,16,-9999,140215.3470695,0.441436767578125,-0.043426513671875,-0.90618896484375,140215.3160325,0.0486194678088136,0.01690974134145812,-0.02671203836571278
2017-11-24 14:46:50.440 -0800,61,C4D50155-580C-4885-BACB-A13DEF47355A,1511563609.985728,49.27912930064034,-122.9162853110252,347.0677,0.1301327,154.763084403163,3,16,-9999,140215.3801505,0.42315673828125,-0.0341796875,-0.89019775390625,140215.3490525,0.0348900734411281,-0.01176930780538718,0.01337865605212206
2017-11-24 14:46:50.472 -0800,62,C4D50155-580C-4885-BACB-A13DEF47355A,1511563609.985728,49.27912930064034,-122.9162853110252,347.0677,0.1301327,154.763084403163,3,16,-9999,140215.4132005,0.420440673828125,-0.016815185546875,-0.8817596435546875,140215.3821645,0.0005129248259492612,0.03495319035896298,0.03838041236578595
2017-11-24 14:46:50.506 -0800,63,C4D50155-580C-4885-BACB-A13DEF47355A,1511563609.985728,49.27912930064034,-122.9162853110252,347.0677,0.1301327,154.763084403163,3,16,-9999,140215.4462815,0.429901123046875,-0.0140228271484375,-0.887908935546875,140215.4151845,0.0136923764285334,0.07207392752914145,0.02914190654430107
2017-11-24 14:46:50.538 -0800,64,C4D50155-580C-4885-BACB-A13DEF47355A,1511563609.985728,49.27912930064034,-122.9162853110252,347.0677,0.1301327,154.763084403163,3,16,-9999,140215.4793015,0.4390106201171875,-0.022369384765625,-0.8941497802734375,140215.4482655,0.04285958300319022,0.1187029487392298,0.0234123817751046
2017-11-24 14:46:50.571 -0800,65,C4D50155-580C-4885-BACB-A13DEF47355A,1511563609.985728,49.27912930064034,-122.9162853110252,347.0677,0.1301327,154.763084403163,3,16,-9999,140215.5124135,0.4374847412109375,-0.0301971435546875,-0.9068145751953125,140215.4813165,0.05403260904050865,0.1643228982122872,0.009903230829568656
2017-11-24 14:46:50.604 -0800,66,C4D50155-580C-4885-BACB-A13DEF47355A,1511563609.985728,49.27912930064034,-122.9162853110252,347.0677,0.1301327,154.763084403163,3,16,-9999,140215.5454335,0.4459075927734375,-0.0282745361328125,-0.9317626953125,140215.5143975,0.07572432243531306,0.2364215931395663,0.0115416075321854
2017-11-24 14:46:50.638 -0800,67,C4D50155-580C-4885-BACB-A13DEF47355A,1511563609.985728,49.27912930064034,-122.9162853110252,347.0677,0.1301327,154.763084403163,3,16,-9999,140215.5785455,0.434661865234375,-0.016937255859375,-0.956878662109375,140215.5474475,0.06834763253190258,0.3000793989918394,0.02432105233903964
2017-11-24 14:46:50.670 -0800,68,C4D50155-580C-4885-BACB-A13DEF47355A,1511563609.985728,49.27912930064034,-122.9162853110252,347.0677,0.1301327,154.763084403163,3,16,-9999,140215.6115655,0.404998779296875,-0.0025787353515625,-0.92645263671875,140215.5805285,0.1362310760858043,0.2671044046905873,-0.01917156405526242
2017-11-24 14:46:50.704 -0800,69,C4D50155-580C-4885-BACB-A13DEF47355A,1511563609.985728,49.27912930064034,-122.9162853110252,347.0677,0.1301327,154.763084403163,3,16,-9999,140215.6446465,0.3857879638671875,-0.048675537109375,-0.89959716796875,140215.6135795,0.2873478910846066,0.1831237502438106,-0.1325045147724565
2017-11-24 14:46:50.741 -0800,70,C4D50155-580C-4885-BACB-A13DEF47355A,1511563609.985728,49.27912930064034,-122.9162853110252,347.0677,0.1301327,154.763084403163,3,16,-9999,140215.6776965,0.4347076416015625,-0.0787506103515625,-0.9868621826171875,140215.6466605,0.2290555558805162,0.05936905123280943,-0.2976620476703745
2017-11-24 14:46:50.771 -0800,71,C4D50155-580C-4885-BACB-A13DEF47355A,1511563609.985728,49.27912930064034,-122.9162853110252,347.0677,0.1301327,154.763084403163,3,16,-9999,140215.7107775,0.40704345703125,-0.1041107177734375,-1.094680786132812,140215.6797105,0.2966401927601111,-0.4772278146978391,-0.5752854060345567
2017-11-24 14:46:50.802 -0800,72,C4D50155-580C-4885-BACB-A13DEF47355A,1511563609.985728,49.27912930064034,-122.9162853110252,347.0677,0.1301327,154.763084403163,3,16,-9999,140215.743803,0.361663818359375,-0.0222930908203125,-1.127548217773438,140215.7127915,0.3288101134638322,-0.9854692055540871,-0.613140110401161
2017-11-24 14:46:50.836 -0800,73,C4D50155-580C-4885-BACB-A13DEF47355A,1511563609.985728,49.27912930064034,-122.9162853110252,347.0677,0.1301327,154.763084403163,3,16,-9999,140215.776884,0.248260498046875,-0.1132049560546875,-1.081619262695312,140215.745817,0.4184486536464823,-1.217247311016991,-1.120403588505132
2017-11-24 14:46:50.868 -0800,74,C4D50155-580C-4885-BACB-A13DEF47355A,1511563609.985728,49.27912930064034,-122.9162853110252,347.0677,0.1301327,154.763084403163,3,16,-9999,140215.809934,0.2513275146484375,-0.0932159423828125,-1.037506103515625,140215.778898,0.5031377089432201,-1.034729163605065,-1.25665517093133
2017-11-24 14:46:50.903 -0800,75,C4D50155-580C-4885-BACB-A13DEF47355A,1511563609.985728,49.27912930064034,-122.9162853110252,347.0677,0.1301327,154.763084403163,3,16,-9999,140215.843015,0.2029266357421875,-0.054046630859375,-0.927703857421875,140215.811949,0.7555651665502716,-0.9288916797758987,-0.7614531494043278
2017-11-24 14:46:50.935 -0800,76,C4D50155-580C-4885-BACB-A13DEF47355A,1511563609.985728,49.27912930064034,-122.9162853110252,347.0677,0.1301327,154.763084403163,3,16,-9999,140215.876066,0.2172393798828125,-0.0427703857421875,-0.86492919921875,140215.84503,0.722301751902964,-0.449627345792476,-0.5088581789647103
2017-11-24 14:46:50.968 -0800,77,C4D50155-580C-4885-BACB-A13DEF47355A,1511563609.985728,49.27912930064034,-122.9162853110252,347.0677,0.1301327,154.763084403163,3,16,-9999,140215.909147,0.2556304931640625,-0.0666961669921875,-0.8520355224609375,140215.87805,0.4538340750503651,0.05812349079097937,-0.5008963925698094
2017-11-24 14:46:51.001 -0800,78,C4D50155-580C-4885-BACB-A13DEF47355A,1511563609.985728,49.27912930064034,-122.9162853110252,347.0677,0.1301327,154.763084403163,3,16,-9999,140215.942198,0.3187408447265625,-0.0837249755859375,-0.8766326904296875,140215.911161,0.01797953315134295,0.2916544888833737,-0.6306930051458732
2017-11-24 14:46:51.035 -0800,79,C4D50155-580C-4885-BACB-A13DEF47355A,1511563609.985728,49.27912930064034,-122.9162853110252,347.0677,0.1301327,154.763084403163,3,16,-9999,140215.975279,0.322723388671875,-0.1074371337890625,-0.8726348876953125,140215.944181,0.02733015805472017,-0.02736078440725608,-0.8716446352996644
2017-11-24 14:46:51.067 -0800,80,C4D50155-580C-4885-BACB-A13DEF47355A,1511563609.985728,49.27912930064034,-122.9162853110252,347.0677,0.1301327,154.763084403163,3,16,-9999,140216.008329,0.3860626220703125,-0.105377197265625,-0.9016265869140625,140215.977293,0.09366816922804895,-0.03076030953874222,-0.8268225688891948
2017-11-24 14:46:51.100 -0800,81,C4D50155-580C-4885-BACB-A13DEF47355A,1511563609.985728,49.27912930064034,-122.9162853110252,347.0677,0.1301327,154.763084403163,3,16,-9999,140216.04141,0.40997314453125,-0.100494384765625,-0.902923583984375,140216.010313,0.157360063542275,-0.06910823133922921,-0.8204203296286443
2017-11-24 14:46:51.133 -0800,82,C4D50155-580C-4885-BACB-A13DEF47355A,1511563609.985728,49.27912930064034,-122.9162853110252,347.0677,0.1301327,154.763084403163,3,16,-9999,140216.07443,0.4017791748046875,-0.1223297119140625,-0.932891845703125,140216.043394,0.4258437193614143,-0.2584310216524172,-0.9073773329096936
2017-11-24 14:46:51.167 -0800,83,C4D50155-580C-4885-BACB-A13DEF47355A,1511563609.985728,49.27912930064034,-122.9162853110252,347.0677,0.1301327,154.763084403163,3,16,-9999,140216.107542,0.3866729736328125,-0.189697265625,-0.844879150390625,140216.076444,0.8652032475710898,-0.7410077953996805,-0.9727403608079443
2017-11-24 14:46:51.199 -0800,84,C4D50155-580C-4885-BACB-A13DEF47355A,1511563610.985707,49.2791287288906,-122.9162854725108,347.0529,0.004429341,155.1210955986984,3,16,-9999,140216.140562,0.3141326904296875,-0.2493133544921875,-0.74951171875,140216.109525,1.015787962984094,-0.7087095103314175,-0.8050341827468205
2017-11-24 14:46:51.233 -0800,85,C4D50155-580C-4885-BACB-A13DEF47355A,1511563610.985707,49.2791287288906,-122.9162854725108,347.0529,0.004429341,155.1210955986984,3,16,-9999,140216.173673,0.29559326171875,-0.308319091796875,-0.760467529296875,140216.142576,0.9010677716550779,-0.4869262484395807,-0.659854086450023
2017-11-24 14:46:51.265 -0800,86,C4D50155-580C-4885-BACB-A13DEF47355A,1511563610.985707,49.2791287288906,-122.9162854725108,347.0529,0.004429341,155.1210955986984,3,16,-9999,140216.206693,0.27081298828125,-0.3185272216796875,-0.775970458984375,140216.175657,0.3816885084879005,-0.3088965927288737,-0.4573840687834407
2017-11-24 14:46:51.303 -0800,87,C4D50155-580C-4885-BACB-A13DEF47355A,1511563610.985707,49.2791287288906,-122.9162854725108,347.0529,0.004429341,155.1210955986984,3,16,-9999,140216.239774,0.2755584716796875,-0.30963134765625,-0.853729248046875,140216.208708,0.1248279529303031,-0.2417449858425257,-0.2875526881724337
2017-11-24 14:46:51.331 -0800,88,C4D50155-580C-4885-BACB-A13DEF47355A,1511563610.985707,49.2791287288906,-122.9162854725108,347.0529,0.004429341,155.1210955986984,3,16,-9999,140216.272825,0.2501068115234375,-0.3636016845703125,-0.8622589111328125,140216.241789,0.02675518157537206,-0.4218167534771055,-0.341912067078695
2017-11-24 14:46:51.365 -0800,89,C4D50155-580C-4885-BACB-A13DEF47355A,1511563610.985707,49.2791287288906,-122.9162854725108,347.0529,0.004429341,155.1210955986984,3,16,-9999,140216.305906,0.1902008056640625,-0.3849334716796875,-0.8807525634765625,140216.274839,-0.1673381291984749,-0.5606547979539884,-0.1639729588450508
2017-11-24 14:46:51.398 -0800,90,C4D50155-580C-4885-BACB-A13DEF47355A,1511563610.985707,49.2791287288906,-122.9162854725108,347.0529,0.004429341,155.1210955986984,3,16,-9999,140216.338957,0.1613922119140625,-0.35125732421875,-0.8641510009765625,140216.30792,-0.2129413007566647,-0.4262668956586279,0.1354201435338752
2017-11-24 14:46:51.432 -0800,91,C4D50155-580C-4885-BACB-A13DEF47355A,1511563610.985707,49.2791287288906,-122.9162854725108,347.0529,0.004429341,155.1210955986984,3,16,-9999,140216.372038,0.107635498046875,-0.3670654296875,-0.9263458251953125,140216.340971,-0.1407597815194841,-0.3987966553305696,0.1070420315902089
2017-11-24 14:46:51.464 -0800,92,C4D50155-580C-4885-BACB-A13DEF47355A,1511563610.985707,49.2791287288906,-122.9162854725108,347.0529,0.004429341,155.1210955986984,3,16,-9999,140216.405088,0.188201904296875,-0.331451416015625,-0.9680023193359375,140216.374052,-0.4257859287657596,-0.03202344684376681,0.04948313095032629
2017-11-24 14:46:51.498 -0800,93,C4D50155-580C-4885-BACB-A13DEF47355A,1511563610.985707,49.2791287288906,-122.9162854725108,347.0529,0.004429341,155.1210955986984,3,16,-9999,140216.438169,0.1414337158203125,-0.3470306396484375,-0.96807861328125,140216.407072,-0.1912748873922161,-0.1173215670818057,-0.01764397485399297
2017-11-24 14:46:51.530 -0800,94,C4D50155-580C-4885-BACB-A13DEF47355A,1511563610.985707,49.2791287288906,-122.9162854725108,347.0529,0.004429341,155.1210955986984,3,16,-9999,140216.47122,0.1548309326171875,-0.3076324462890625,-1.01300048828125,140216.440183,0.3503521572053742,0.1658480905685756,-0.0292841193465113
2017-11-24 14:46:51.563 -0800,95,C4D50155-580C-4885-BACB-A13DEF47355A,1511563610.985707,49.2791287288906,-122.9162854725108,347.0529,0.004429341,155.1210955986984,3,16,-9999,140216.504301,0.1729278564453125,-0.3464813232421875,-1.121078491210938,140216.473203,0.7588443168004863,0.4855624436453512,-0.1539024814990251
2017-11-24 14:46:51.596 -0800,96,C4D50155-580C-4885-BACB-A13DEF47355A,1511563610.985707,49.2791287288906,-122.9162854725108,347.0529,0.004429341,155.1210955986984,3,16,-9999,140216.537351,0.251678466796875,-0.373870849609375,-1.190582275390625,140216.506315,0.8148268923911509,0.5142846360018557,-0.2825475432197387
2017-11-24 14:46:51.630 -0800,97,C4D50155-580C-4885-BACB-A13DEF47355A,1511563610.985707,49.2791287288906,-122.9162854725108,347.0529,0.004429341,155.1210955986984,3,16,-9999,140216.570432,0.2286376953125,-0.4269561767578125,-1.109893798828125,140216.539335,0.5725306322029787,-0.06743683143909547,-0.4383850775668154
2017-11-24 14:46:51.662 -0800,98,C4D50155-580C-4885-BACB-A13DEF47355A,1511563610.985707,49.2791287288906,-122.9162854725108,347.0529,0.004429341,155.1210955986984,3,16,-9999,140216.603452,0.2631378173828125,-0.3705291748046875,-1.193496704101562,140216.572447,0.3246052484187061,0.1111720618087037,-0.3138508713047481
2017-11-24 14:46:51.696 -0800,99,C4D50155-580C-4885-BACB-A13DEF47355A,1511563610.985707,49.2791287288906,-122.9162854725108,347.0529,0.004429341,155.1210955986984,3,16,-9999,140216.636564,0.30322265625,-0.2266693115234375,-1.2357177734375,140216.605467,0.4787575344279807,0.1274122844521159,-0.05890912331255275
2017-11-24 14:46:51.728 -0800,100,C4D50155-580C-4885-BACB-A13DEF47355A,1511563610.985707,49.2791287288906,-122.9162854725108,347.0529,0.004429341,155.1210955986984,3,16,-9999,140216.669584,0.18548583984375,-0.1550750732421875,-1.1064453125,140216.638548,0.4861531327751307,-0.383889078496633,-0.1408332847655703
2017-11-24 14:46:51.762 -0800,101,C4D50155-580C-4885-BACB-A13DEF47355A,1511563610.985707,49.2791287288906,-122.9162854725108,347.0529,0.004429341,155.1210955986984,3,16,-9999,140216.702696,0.0484771728515625,-0.1657562255859375,-0.9234466552734375,140216.671598,0.2683206703604264,-0.9898074949698262,-0.4653762152147685
2017-11-24 14:46:51.794 -0800,102,C4D50155-580C-4885-BACB-A13DEF47355A,1511563610.985707,49.2791287288906,-122.9162854725108,347.0529,0.004429341,155.1210955986984,3,16,-9999,140216.735716,-0.0706024169921875,-0.3084716796875,-0.9090423583984375,140216.704679,-0.2287378407624697,-1.020338506338712,-0.5926870332293525
2017-11-24 14:46:51.828 -0800,103,C4D50155-580C-4885-BACB-A13DEF47355A,1511563610.985707,49.2791287288906,-122.9162854725108,347.0529,0.004429341,155.1210955986984,3,16,-9999,140216.768833125,0.0202484130859375,-0.0901947021484375,-0.834228515625,140216.73773,-0.5371516023857121,-0.7297474176786075,-0.06699128458872522
2017-11-24 14:46:51.862 -0800,104,C4D50155-580C-4885-BACB-A13DEF47355A,1511563610.985707,49.2791287288906,-122.9162854725108,347.0529,0.004429341,155.1210955986984,3,16,-9999,140216.801853125,0.2302093505859375,0.0399169921875,-1.127166748046875,140216.770817125,0.08706432867297946,0.5824517062118509,-0.09376564092394585
2017-11-24 14:46:51.894 -0800,105,C4D50155-580C-4885-BACB-A13DEF47355A,1511563610.985707,49.2791287288906,-122.9162854725108,347.0529,0.004429341,155.1210955986984,3,16,-9999,140216.834934125,0.091400146484375,-0.1745758056640625,-0.916595458984375,140216.803867125,0.2066290763409589,-0.2161938193959785,-1.147427749350602
2017-11-24 14:46:51.926 -0800,106,C4D50155-580C-4885-BACB-A13DEF47355A,1511563610.985707,49.2791287288906,-122.9162854725108,347.0529,0.004429341,155.1210955986984,3,16,-9999,140216.867985125,0.0802764892578125,-0.2876434326171875,-0.77459716796875,140216.836948125,0.9946853408224153,-0.2704927445454951,-1.471191971497061
2017-11-24 14:46:51.960 -0800,107,C4D50155-580C-4885-BACB-A13DEF47355A,1511563610.985707,49.2791287288906,-122.9162854725108,347.0529,0.004429341,155.1210955986984,3,16,-9999,140216.901066125,0.064849853515625,-0.3286895751953125,-0.6808319091796875,140216.869999125,1.698128450098201,-0.09304951690682355,-1.271647169971822
2017-11-24 14:46:51.993 -0800,108,C4D50155-580C-4885-BACB-A13DEF47355A,1511563610.985707,49.2791287288906,-122.9162854725108,347.0529,0.004429341,155.1210955986984,3,16,-9999,140216.934116125,0.0154266357421875,-0.354461669921875,-0.67889404296875,140216.903080125,1.536592283650573,-0.06752791154837619,-1.076757041399823
2017-11-24 14:46:52.027 -0800,109,C4D50155-580C-4885-BACB-A13DEF47355A,1511563610.985707,49.2791287288906,-122.9162854725108,347.0529,0.004429341,155.1210955986984,3,16,-9999,140216.967197125,0.070526123046875,-0.3814849853515625,-0.72943115234375,140216.936131125,1.003419976565657,0.01932975582401313,-0.9034768671771636
2017-11-24 14:46:52.058 -0800,110,C4D50155-580C-4885-BACB-A13DEF47355A,1511563610.985707,49.2791287288906,-122.9162854725108,347.0529,0.004429341,155.1210955986984,3,16,-9999,140217.000248125,0.0372314453125,-0.434906005859375,-0.79608154296875,140216.969212125,0.7821640205696561,-0.05055025959912104,-0.6812057141736242
2017-11-24 14:46:52.092 -0800,111,C4D50155-580C-4885-BACB-A13DEF47355A,1511563610.985707,49.2791287288906,-122.9162854725108,347.0529,0.004429341,155.1210955986984,3,16,-9999,140217.033329125,0.0350494384765625,-0.39093017578125,-0.8999786376953125,140217.002232125,0.7036740053422957,0.02012071466776666,-0.2985563371644231
2017-11-24 14:46:52.125 -0800,112,C4D50155-580C-4885-BACB-A13DEF47355A,1511563610.985707,49.2791287288906,-122.9162854725108,347.0529,0.004429341,155.1210955986984,3,16,-9999,140217.066380125,0.01190185546875,-0.4868621826171875,-0.8924560546875,140217.035343125,0.4591255098202436,-0.3548800636907269,-0.3358863987962818
2017-11-24 14:46:52.159 -0800,113,C4D50155-580C-4885-BACB-A13DEF47355A,1511563610.985707,49.2791287288906,-122.9162854725108,347.0529,0.004429341,155.1210955986984,3,16,-9999,140217.099461125,0.0472259521484375,-0.490570068359375,-0.9683685302734375,140217.068363125,0.08982256461397453,-0.1897686034796673,-0.2285173310242112
2017-11-24 14:46:52.191 -0800,114,C4D50155-580C-4885-BACB-A13DEF47355A,1511563611.985687,49.27912850301398,-122.9162830122465,347.0533,0.2322652,150.4122402414866,3,16,-9999,140217.132511125,0.169219970703125,-0.43853759765625,-1.08221435546875,140217.101475125,-0.0654543743236405,0.1593718154297209,-0.04761998345170686
2017-11-24 14:46:52.225 -0800,115,C4D50155-580C-4885-BACB-A13DEF47355A,1511563611.985687,49.27912850301398,-122.9162830122465,347.0533,0.2322652,150.4122402414866,3,16,-9999,140217.165592125,0.26483154296875,-0.5338134765625,-1.104843139648438,140217.134495125,-0.4417414594886424,0.08192416145301752,-0.1983362590225612
2017-11-24 14:46:52.264 -0800,116,C4D50155-580C-4885-BACB-A13DEF47355A,1511563611.985687,49.27912850301398,-122.9162830122465,347.0533,0.2322652,150.4122402414866,3,16,-9999,140217.198612125,0.467376708984375,-0.4588165283203125,-1.404296875,140217.167606125,-1.056246439948469,0.8841074302529083,-0.03653217856927096
2017-11-24 14:46:52.291 -0800,117,C4D50155-580C-4885-BACB-A13DEF47355A,1511563611.985687,49.27912850301398,-122.9162830122465,347.0533,0.2322652,150.4122402414866,3,16,-9999,140217.231724125,0.5574951171875,-0.1190032958984375,-1.347824096679688,140217.200626125,-0.959452252232885,0.7621943071356969,0.443545218494953
2017-11-24 14:46:52.324 -0800,118,C4D50155-580C-4885-BACB-A13DEF47355A,1511563611.985687,49.27912850301398,-122.9162830122465,347.0533,0.2322652,150.4122402414866,3,16,-9999,140217.264744125,0.4682464599609375,-0.072723388671875,-0.7717437744140625,140217.233707125,-0.110675914897622,-0.929472515209645,0.1711922559280376
2017-11-24 14:46:52.357 -0800,119,C4D50155-580C-4885-BACB-A13DEF47355A,1511563611.985687,49.27912850301398,-122.9162830122465,347.0533,0.2322652,150.4122402414866,3,16,-9999,140217.297855125,0.3948516845703125,-0.3456573486328125,-0.5797119140625,140217.266758125,0.7821757384784525,-0.7767471509124348,-0.3841093219187826
2017-11-24 14:46:52.389 -0800,120,C4D50155-580C-4885-BACB-A13DEF47355A,1511563611.985687,49.27912850301398,-122.9162830122465,347.0533,0.2322652,150.4122402414866,3,16,-9999,140217.330875125,0.35772705078125,-0.4194183349609375,-0.7220916748046875,140217.299839125,0.8554499527108925,0.5700688060913095,-0.04981549345436818
2017-11-24 14:46:52.424 -0800,121,C4D50155-580C-4885-BACB-A13DEF47355A,1511563611.985687,49.27912850301398,-122.9162830122465,347.0533,0.2322652,150.4122402414866,3,16,-9999,140217.363956125,0.3125762939453125,-0.30279541015625,-0.75970458984375,140217.332890125,0.2450781982628689,0.5949560464781,0.5132625147754833
2017-11-24 14:46:52.455 -0800,122,C4D50155-580C-4885-BACB-A13DEF47355A,1511563611.985687,49.27912850301398,-122.9162830122465,347.0533,0.2322652,150.4122402414866,3,16,-9999,140217.397007125,0.2429351806640625,-0.295989990234375,-0.6476898193359375,140217.365971125,-0.4360899653393852,-0.07719918104699894,0.4607646854711873
2017-11-24 14:46:52.489 -0800,123,C4D50155-580C-4885-BACB-A13DEF47355A,1511563611.985687,49.27912850301398,-122.9162830122465,347.0533,0.2322652,150.4122402414866,3,16,-9999,140217.430088125,0.1537322998046875,-0.3094635009765625,-0.5221099853515625,140217.399021125,-0.3294692458336269,-0.3532749765017362,0.4439894337647782
2017-11-24 14:46:52.522 -0800,124,C4D50155-580C-4885-BACB-A13DEF47355A,1511563611.985687,49.27912850301398,-122.9162830122465,347.0533,0.2322652,150.4122402414866,3,16,-9999,140217.463139125,0.1083831787109375,-0.3279571533203125,-0.535614013671875,140217.432102125,0.06754096103771758,-0.1069504188487101,0.4519213927554702
2017-11-24 14:46:52.555 -0800,125,C4D50155-580C-4885-BACB-A13DEF47355A,1511563611.985687,49.27912850301398,-122.9162830122465,347.0533,0.2322652,150.4122402414866,3,16,-9999,140217.496220125,0.10821533203125,-0.3692626953125,-0.5911407470703125,140217.465153125,-0.01189128058331281,0.1246479232406137,0.3744388513684869
2017-11-24 14:46:52.587 -0800,126,C4D50155-580C-4885-BACB-A13DEF47355A,1511563611.985687,49.27912850301398,-122.9162830122465,347.0533,0.2322652,150.4122402414866,3,16,-9999,140217.529270125,0.138671875,-0.410400390625,-0.6452789306640625,140217.498234125,-0.3922298327146522,0.09159942569327539,0.335424074031044
2017-11-24 14:46:52.622 -0800,127,C4D50155-580C-4885-BACB-A13DEF47355A,1511563611.985687,49.27912850301398,-122.9162830122465,347.0533,0.2322652,150.4122402414866,3,16,-9999,140217.562351125,0.1739044189453125,-0.4790802001953125,-0.786376953125,140217.531284125,-0.4602275258793184,0.2159453464662741,0.2993712644579873
2017-11-24 14:46:52.654 -0800,128,C4D50155-580C-4885-BACB-A13DEF47355A,1511563611.985687,49.27912850301398,-122.9162830122465,347.0533,0.2322652,150.4122402414866,3,16,-9999,140217.595402125,0.2188262939453125,-0.4752655029296875,-0.989898681640625,140217.564365125,-0.4910134017645253,0.3019321601622075,0.3149624747437472
2017-11-24 14:46:52.688 -0800,129,C4D50155-580C-4885-BACB-A13DEF47355A,1511563611.985687,49.27912850301398,-122.9162830122465,347.0533,0.2322652,150.4122402414866,3,16,-9999,140217.628483125,0.223114013671875,-0.524139404296875,-1.05975341796875,140217.597385125,-0.402775151683039,-0.00576840692111163,0.1914194970394074
2017-11-24 14:46:52.720 -0800,130,C4D50155-580C-4885-BACB-A13DEF47355A,1511563611.985687,49.27912850301398,-122.9162830122465,347.0533,0.2322652,150.4122402414866,3,16,-9999,140217.661533125,0.253692626953125,-0.6213836669921875,-1.215606689453125,140217.630497125,-0.2346196983460187,0.07273385884726308,-0.04138392544317732
2017-11-24 14:46:52.754 -0800,131,C4D50155-580C-4885-BACB-A13DEF47355A,1511563611.985687,49.27912850301398,-122.9162830122465,347.0533,0.2322652,150.4122402414866,3,16,-9999,140217.694614125,0.3387908935546875,-0.6042938232421875,-1.37969970703125,140217.663517125,-0.2763405136670911,0.527972218740427,-0.02084988817423036
2017-11-24 14:46:52.786 -0800,132,C4D50155-580C-4885-BACB-A13DEF47355A,1511563611.985687,49.27912850301398,-122.9162830122465,347.0533,0.2322652,150.4122402414866,3,16,-9999,140217.727665125,0.30767822265625,-0.5806427001953125,-1.4398193359375,140217.696629125,-0.1708947808342757,0.2042503408553001,-0.1005092974362445
2017-11-24 14:46:52.822 -0800,133,C4D50155-580C-4885-BACB-A13DEF47355A,1511563611.985687,49.27912850301398,-122.9162830122465,347.0533,0.2322652,150.4122402414866,3,16,-9999,140217.760732625,0.3362884521484375,-0.324493408203125,-1.461654663085938,140217.729649125,-0.2091444319905388,0.5043177556222342,0.08455962566775994
2017-11-24 14:46:52.852 -0800,134,C4D50155-580C-4885-BACB-A13DEF47355A,1511563611.985687,49.27912850301398,-122.9162830122465,347.0533,0.2322652,150.4122402414866,3,16,-9999,140217.793752625,0.1343841552734375,-0.257659912109375,-1.061767578125,140217.762716625,0.4729353316528495,-0.4286933017277991,0.03429459062138638
2017-11-24 14:46:52.886 -0800,135,C4D50155-580C-4885-BACB-A13DEF47355A,1511563611.985687,49.27912850301398,-122.9162830122465,347.0533,0.2322652,150.4122402414866,3,16,-9999,140217.826864625,0.0094146728515625,-0.320098876953125,-0.8571929931640625,140217.795766625,0.6160109980562665,-0.6291078916650581,-0.2475035390676041
2017-11-24 14:46:52.918 -0800,136,C4D50155-580C-4885-BACB-A13DEF47355A,1511563611.985687,49.27912850301398,-122.9162830122465,347.0533,0.2322652,150.4122402414866,3,16,-9999,140217.859884625,0.0510406494140625,-0.243743896484375,-0.9401092529296875,140217.828847625,0.2529965751320015,0.1726631197980883,-0.1799593822365784
2017-11-24 14:46:52.952 -0800,137,C4D50155-580C-4885-BACB-A13DEF47355A,1511563611.985687,49.27912850301398,-122.9162830122465,347.0533,0.2322652,150.4122402414866,3,16,-9999,140217.892995625,0.0865478515625,-0.1632537841796875,-0.9067840576171875,140217.861898625,0.1181508754452564,0.2926883280185425,-0.07049280878996141
2017-11-24 14:46:52.985 -0800,138,C4D50155-580C-4885-BACB-A13DEF47355A,1511563611.985687,49.27912850301398,-122.9162830122465,347.0533,0.2322652,150.4122402414866,3,16,-9999,140217.926015625,0.060333251953125,-0.17364501953125,-0.6957550048828125,140217.894979625,0.1422761854441752,-0.3522235605033728,-0.2268762911605043
2017-11-24 14:46:53.018 -0800,139,C4D50155-580C-4885-BACB-A13DEF47355A,1511563611.985687,49.27912850301398,-122.9162830122465,347.0533,0.2322652,150.4122402414866,3,16,-9999,140217.959096625,0.04876708984375,-0.197998046875,-0.5484161376953125,140217.928029625,0.2192553893851336,-0.6439523515811598,-0.3707956469972584
2017-11-24 14:46:53.051 -0800,140,C4D50155-580C-4885-BACB-A13DEF47355A,1511563611.985687,49.27912850301398,-122.9162830122465,347.0533,0.2322652,150.4122402414866,3,16,-9999,140217.992147625,0.0618743896484375,-0.2400665283203125,-0.5027313232421875,140217.961110625,0.4847272763275023,-0.5680258952191097,-0.4497237522239368
2017-11-24 14:46:53.084 -0800,141,C4D50155-580C-4885-BACB-A13DEF47355A,1511563611.985687,49.27912850301398,-122.9162830122465,347.0533,0.2322652,150.4122402414866,3,16,-9999,140218.025228625,0.0793609619140625,-0.322052001953125,-0.515960693359375,140217.994161625,0.7201480535294169,-0.4262916630567656,-0.5013970668547443
2017-11-24 14:46:53.116 -0800,142,C4D50155-580C-4885-BACB-A13DEF47355A,1511563611.985687,49.27912850301398,-122.9162830122465,347.0533,0.2322652,150.4122402414866,3,16,-9999,140218.058278625,0.0851898193359375,-0.413360595703125,-0.598846435546875,140218.027242625,0.6501162379241482,-0.3105032778145185,-0.4896498632864048
2017-11-24 14:46:53.150 -0800,143,C4D50155-580C-4885-BACB-A13DEF47355A,1511563611.985687,49.27912850301398,-122.9162830122465,347.0533,0.2322652,150.4122402414866,3,16,-9999,140218.091359625,0.1107025146484375,-0.4702606201171875,-0.7754058837890625,140218.060293625,0.2816223610570452,-0.07745244766666548,-0.405499299162081
2017-11-24 14:46:53.182 -0800,144,C4D50155-580C-4885-BACB-A13DEF47355A,1511563612.985667,49.27912547488916,-122.9162785474911,347.0658,0.2322652,176.1244873719996,3,16,-9999,140218.124410625,0.0807037353515625,-0.4922943115234375,-0.858001708984375,140218.093374625,0.278723243894385,-0.09456192608987954,-0.3151952350230202
2017-11-24 14:46:53.222 -0800,145,C4D50155-580C-4885-BACB-A13DEF47355A,1511563612.985667,49.27912547488916,-122.9162785474911,347.0658,0.2322652,176.1244873719996,3,16,-9999,140218.157491625,0.169281005859375,-0.555877685546875,-1.052444458007812,140218.126394625,0.09022976194464764,0.156350192856917,-0.3755035831723005
2017-11-24 14:46:53.249 -0800,146,C4D50155-580C-4885-BACB-A13DEF47355A,1511563612.985667,49.27912547488916,-122.9162785474911,347.0658,0.2322652,176.1244873719996,3,16,-9999,140218.190542625,0.317138671875,-0.569427490234375,-1.422576904296875,140218.159505625,-0.2348604481085619,0.7203453937661918,-0.2929429262187541
2017-11-24 14:46:53.283 -0800,147,C4D50155-580C-4885-BACB-A13DEF47355A,1511563612.985667,49.27912547488916,-122.9162785474911,347.0658,0.2322652,176.1244873719996,3,16,-9999,140218.223623625,0.394256591796875,-0.5610809326171875,-1.416183471679688,140218.192525625,-0.5056253677174631,0.3716116395552587,-0.1254354199749501
2017-11-24 14:46:53.315 -0800,148,C4D50155-580C-4885-BACB-A13DEF47355A,1511563612.985667,49.27912547488916,-122.9162785474911,347.0658,0.2322652,176.1244873719996,3,16,-9999,140218.256673625,0.40887451171875,-0.4921417236328125,-1.346160888671875,140218.225637625,-0.422739272478709,-0.02983592632437572,0.002749980141615821
2017-11-24 14:46:53.349 -0800,149,C4D50155-580C-4885-BACB-A13DEF47355A,1511563612.985667,49.27912547488916,-122.9162785474911,347.0658,0.2322652,176.1244873719996,3,16,-9999,140218.289754625,0.3482666015625,-0.2347564697265625,-1.090072631835938,140218.258657625,-0.1479449901405179,-0.2294947111442703,0.4157375556567816
2017-11-24 14:46:53.382 -0800,150,C4D50155-580C-4885-BACB-A13DEF47355A,1511563612.985667,49.27912547488916,-122.9162785474911,347.0658,0.2322652,176.1244873719996,3,16,-9999,140218.322774625,0.339385986328125,-0.158660888671875,-0.793792724609375,140218.291768625,0.2619471932396488,-0.6834235947294423,0.3924396898085504
2017-11-24 14:46:53.415 -0800,151,C4D50155-580C-4885-BACB-A13DEF47355A,1511563612.985667,49.27912547488916,-122.9162785474911,347.0658,0.2322652,176.1244873719996,3,16,-9999,140218.355886625,0.427764892578125,-0.29486083984375,-0.8883819580078125,140218.324788625,0.2317232443444486,0.4089656696369282,0.04781013315353851
2017-11-24 14:46:53.447 -0800,152,C4D50155-580C-4885-BACB-A13DEF47355A,1511563612.985667,49.27912547488916,-122.9162785474911,347.0658,0.2322652,176.1244873719996,3,16,-9999,140218.388906625,0.38720703125,-0.3160400390625,-0.931182861328125,140218.357869625,0.1451113867406736,0.8459256897044422,0.2886818684746273
2017-11-24 14:46:53.481 -0800,153,C4D50155-580C-4885-BACB-A13DEF47355A,1511563612.985667,49.27912547488916,-122.9162785474911,347.0658,0.2322652,176.1244873719996,3,16,-9999,140218.422017625,0.24310302734375,-0.2515106201171875,-0.7510833740234375,140218.390920625,-0.2279418219126451,0.03485172392143096,0.4319130634857049
2017-11-24 14:46:53.513 -0800,154,C4D50155-580C-4885-BACB-A13DEF47355A,1511563612.985667,49.27912547488916,-122.9162785474911,347.0658,0.2322652,176.1244873719996,3,16,-9999,140218.455037625,0.150238037109375,-0.2550048828125,-0.52020263671875,140218.424001625,-0.3637089753365576,-0.5290899474499332,0.2897860150625741
2017-11-24 14:46:53.547 -0800,155,C4D50155-580C-4885-BACB-A13DEF47355A,1511563612.985667,49.27912547488916,-122.9162785474911,347.0658,0.2322652,176.1244873719996,3,16,-9999,140218.488149625,0.0705413818359375,-0.305084228515625,-0.3936920166015625,140218.457052625,0.1347823164528012,-0.5374317669323885,0.1660395718509523
2017-11-24 14:46:53.579 -0800,156,C4D50155-580C-4885-BACB-A13DEF47355A,1511563612.985667,49.27912547488916,-122.9162785474911,347.0658,0.2322652,176.1244873719996,3,16,-9999,140218.521169625,0.0469818115234375,-0.35321044921875,-0.4391937255859375,140218.490133625,0.3855825826338144,-0.1124391938553635,0.1142703834209019
2017-11-24 14:46:53.614 -0800,157,C4D50155-580C-4885-BACB-A13DEF47355A,1511563612.985667,49.27912547488916,-122.9162785474911,347.0658,0.2322652,176.1244873719996,3,16,-9999,140218.554250625,0.0839691162109375,-0.3997344970703125,-0.6120758056640625,140218.523183625,0.07572299085476802,0.1503444982826793,0.09854228665511197
2017-11-24 14:46:53.646 -0800,158,C4D50155-580C-4885-BACB-A13DEF47355A,1511563612.985667,49.27912547488916,-122.9162785474911,347.0658,0.2322652,176.1244873719996,3,16,-9999,140218.587301625,0.1443939208984375,-0.470306396484375,-0.7327423095703125,140218.556264625,-0.1313534965493242,0.1211868790879467,0.03934181351930455
2017-11-24 14:46:53.680 -0800,159,C4D50155-580C-4885-BACB-A13DEF47355A,1511563612.985667,49.27912547488916,-122.9162785474911,347.0658,0.2322652,176.1244873719996,3,16,-9999,140218.620382625,0.2057952880859375,-0.52227783203125,-0.8900909423828125,140218.589315625,0.101468301744782,0.07720477368528811,0.0158873537989767
2017-11-24 14:46:53.712 -0800,160,C4D50155-580C-4885-BACB-A13DEF47355A,1511563612.985667,49.27912547488916,-122.9162785474911,347.0658,0.2322652,176.1244873719996,3,16,-9999,140218.653432625,0.2374114990234375,-0.704193115234375,-0.914154052734375,140218.622396625,0.5816042883529877,-0.1020360876891869,-0.03310096182081287
2017-11-24 14:46:53.746 -0800,161,C4D50155-580C-4885-BACB-A13DEF47355A,1511563612.985667,49.27912547488916,-122.9162785474911,347.0658,0.2322652,176.1244873719996,3,16,-9999,140218.686513625,0.2966156005859375,-0.90447998046875,-1.187271118164062,140218.655446625,0.3838475331836278,0.02572693507849247,-0.03432068960006916
2017-11-24 14:46:53.782 -0800,162,C4D50155-580C-4885-BACB-A13DEF47355A,1511563612.985667,49.27912547488916,-122.9162785474911,347.0658,0.2322652,176.1244873719996,3,16,-9999,140218.719564625,0.439971923828125,-0.6337890625,-1.553924560546875,140218.688527625,-0.4996705395200459,0.4841882525228703,0.4822143175229036
2017-11-24 14:46:53.812 -0800,163,C4D50155-580C-4885-BACB-A13DEF47355A,1511563612.985667,49.27912547488916,-122.9162785474911,347.0658,0.2322652,176.1244873719996,3,16,-9999,140218.752603875,0.1481170654296875,-0.6083221435546875,-1.260940551757812,140218.721547625,-0.5130971324717895,-0.9690659974519621,0.2795823796620445
2017-11-24 14:46:53.844 -0800,164,C4D50155-580C-4885-BACB-A13DEF47355A,1511563612.985667,49.27912547488916,-122.9162785474911,347.0658,0.2322652,176.1244873719996,3,16,-9999,140218.785653875,0.26171875,-0.331512451171875,-1.279876708984375,140218.754617875,-0.3399218867960788,-0.151846521137484,-0.1204451887243597
2017-11-24 14:46:53.878 -0800,165,C4D50155-580C-4885-BACB-A13DEF47355A,1511563612.985667,49.27912547488916,-122.9162785474911,347.0658,0.2322652,176.1244873719996,3,16,-9999,140218.818734875,0.1735992431640625,-0.290771484375,-0.94171142578125,140218.787637875,1.268981079404544,-0.01402633682922933,-0.2977621825273615
2017-11-24 14:46:53.910 -0800,166,C4D50155-580C-4885-BACB-A13DEF47355A,1511563612.985667,49.27912547488916,-122.9162785474911,347.0658,0.2322652,176.1244873719996,3,16,-9999,140218.851785875,0.0254669189453125,-0.4549713134765625,-0.694915771484375,140218.820749875,1.744624845886004,-0.4848457869960108,-0.470904937637773
2017-11-24 14:46:53.944 -0800,167,C4D50155-580C-4885-BACB-A13DEF47355A,1511563612.985667,49.27912547488916,-122.9162785474911,347.0658,0.2322652,176.1244873719996,3,16,-9999,140218.884866875,0.058624267578125,-0.4303436279296875,-0.8139495849609375,140218.853769875,0.2386141736650286,0.257584935374099,-0.1853379023741024
2017-11-24 14:46:53.977 -0800,168,C4D50155-580C-4885-BACB-A13DEF47355A,1511563612.985667,49.27912547488916,-122.9162785474911,347.0658,0.2322652,176.1244873719996,3,16,-9999,140218.917886875,0.10186767578125,-0.186920166015625,-0.8794708251953125,140218.886850875,-0.9569198523523287,0.5966865685544335,0.4325575484695041
2017-11-24 14:46:54.011 -0800,169,C4D50155-580C-4885-BACB-A13DEF47355A,1511563612.985667,49.27912547488916,-122.9162785474911,347.0658,0.2322652,176.1244873719996,3,16,-9999,140218.950998875,0.061065673828125,-0.1292266845703125,-0.6768951416015625,140218.919900875,-0.9318150317044787,-0.01446735630574645,0.4007050765677204
2017-11-24 14:46:54.042 -0800,170,C4D50155-580C-4885-BACB-A13DEF47355A,1511563612.985667,49.27912547488916,-122.9162785474911,347.0658,0.2322652,176.1244873719996,3,16,-9999,140218.984018875,0.020538330078125,-0.193023681640625,-0.4700775146484375,140218.952981875,-0.3072459654852426,-0.4322829765611169,0.04432725107993288
2017-11-24 14:46:54.076 -0800,171,C4D50155-580C-4885-BACB-A13DEF47355A,1511563612.985667,49.27912547488916,-122.9162785474911,347.0658,0.2322652,176.1244873719996,3,16,-9999,140219.017129875,0.046051025390625,-0.28790283203125,-0.4243011474609375,140218.986032875,0.1366465292158567,-0.2100331288462982,-0.2277008058339929
2017-11-24 14:46:54.108 -0800,172,C4D50155-580C-4885-BACB-A13DEF47355A,1511563612.985667,49.27912547488916,-122.9162785474911,347.0658,0.2322652,176.1244873719996,3,16,-9999,140219.050149875,0.0724334716796875,-0.344207763671875,-0.471435546875,140219.019113875,0.3212824223266142,0.04117220413651602,-0.3268433689988087
2017-11-24 14:46:54.142 -0800,173,C4D50155-580C-4885-BACB-A13DEF47355A,1511563612.985667,49.27912547488916,-122.9162785474911,347.0658,0.2322652,176.1244873719996,3,16,-9999,140219.083230875,0.0413665771484375,-0.468475341796875,-0.5297698974609375,140219.052163875,0.2234834239317434,0.02983752422102977,-0.404187958641326
2017-11-24 14:46:54.174 -0800,174,C4D50155-580C-4885-BACB-A13DEF47355A,1511563612.985667,49.27912547488916,-122.9162785474911,347.0658,0.2322652,176.1244873719996,3,16,-9999,140219.116281875,-0.063262939453125,-0.5466156005859375,-0.6649169921875,140219.085244875,-0.02159264380225346,0.005843508063851865,-0.3173129807218512
2017-11-24 14:46:54.234 -0800,175,C4D50155-580C-4885-BACB-A13DEF47355A,1511563613.985646,49.27912004083524,-122.9162710008276,347.102,0.08099867,200.000451804533,3,16,-9999,140219.175424875,0.010528564453125,-0.6527862548828125,-1.284133911132812,140219.118295875,-0.4513490794372122,0.1935612111880491,-0.3333111220221752
2017-11-24 14:46:54.265 -0800,176,C4D50155-580C-4885-BACB-A13DEF47355A,1511563613.985646,49.27912004083524,-122.9162710008276,347.102,0.08099867,200.000451804533,3,16,-9999,140219.205484875,0.2293548583984375,-0.672271728515625,-1.734817504882812,140219.177438875,-1.599971522852824,0.5513206846493697,-0.8705463476661157
2017-11-24 14:46:54.295 -0800,177,C4D50155-580C-4885-BACB-A13DEF47355A,1511563613.985646,49.27912004083524,-122.9162710008276,347.102,0.08099867,200.000451804533,3,16,-9999,140219.235544875,0.40240478515625,-0.546417236328125,-1.692840576171875,140219.207498875,-0.7182287133317967,0.3027478864040988,-0.5730174580502453
2017-11-24 14:46:54.325 -0800,178,C4D50155-580C-4885-BACB-A13DEF47355A,1511563613.985646,49.27912004083524,-122.9162710008276,347.102,0.08099867,200.000451804533,3,16,-9999,140219.265603875,0.3929901123046875,-0.700286865234375,-1.28955078125,140219.237558875,0.3059537997243362,-0.6595182618365639,-0.7212548632784538
2017-11-24 14:46:54.355 -0800,179,C4D50155-580C-4885-BACB-A13DEF47355A,1511563613.985646,49.27912004083524,-122.9162710008276,347.102,0.08099867,200.000451804533,3,16,-9999,140219.295663875,0.4854888916015625,-0.5224151611328125,-1.186599731445312,140219.267587875,0.5085990533906456,-0.2499621693859652,-0.3272742684631835
2017-11-24 14:46:54.385 -0800,180,C4D50155-580C-4885-BACB-A13DEF47355A,1511563613.985646,49.27912004083524,-122.9162710008276,347.102,0.08099867,200.000451804533,3,16,-9999,140219.325723875,0.497589111328125,-0.2131195068359375,-0.9911041259765625,140219.297647875,0.579295594003998,-0.1672526417274833,0.2900081226974867
2017-11-24 14:46:54.415 -0800,181,C4D50155-580C-4885-BACB-A13DEF47355A,1511563613.985646,49.27912004083524,-122.9162710008276,347.102,0.08099867,200.000451804533,3,16,-9999,140219.355783875,0.325958251953125,-0.146575927734375,-0.6689453125,140219.327707875,0.9904796768289622,-0.8709127986321107,0.5181851017343858
2017-11-24 14:46:54.445 -0800,182,C4D50155-580C-4885-BACB-A13DEF47355A,1511563613.985646,49.27912004083524,-122.9162710008276,347.102,0.08099867,200.000451804533,3,16,-9999,140219.385843875,0.2904510498046875,-0.256439208984375,-0.743804931640625,140219.357766875,0.6373674194698299,-0.007284810845802748,0.3659135400869252
2017-11-24 14:46:54.475 -0800,183,C4D50155-580C-4885-BACB-A13DEF47355A,1511563613.985646,49.27912004083524,-122.9162710008276,347.102,0.08099867,200.000451804533,3,16,-9999,140219.415902875,0.3932952880859375,-0.2361297607421875,-1.00750732421875,140219.387826875,-0.2419340702799214,1.221100638798227,0.4334529032279887
2017-11-24 14:46:54.505 -0800,184,C4D50155-580C-4885-BACB-A13DEF47355A,1511563613.985646,49.27912004083524,-122.9162710008276,347.102,0.08099867,200.000451804533,3,16,-9999,140219.445932875,0.3372802734375,-0.1346588134765625,-0.9184722900390625,140219.417886875,-0.4484683380860734,0.6367953724676808,0.5250059899182967
2017-11-24 14:46:54.535 -0800,185,C4D50155-580C-4885-BACB-A13DEF47355A,1511563613.985646,49.27912004083524,-122.9162710008276,347.102,0.08099867,200.000451804533,3,16,-9999,140219.475992875,0.1562957763671875,-0.19635009765625,-0.564697265625,140219.447946875,0.02597487537597884,-0.6878745358592916,0.1785548310776706
2017-11-24 14:46:54.565 -0800,186,C4D50155-580C-4885-BACB-A13DEF47355A,1511563613.985646,49.27912004083524,-122.9162710008276,347.102,0.08099867,200.000451804533,3,16,-9999,140219.506051875,0.06951904296875,-0.3070526123046875,-0.3737945556640625,140219.478006875,0.3999013345507345,-0.936496069952511,-0.1363160309245779
2017-11-24 14:46:54.595 -0800,187,C4D50155-580C-4885-BACB-A13DEF47355A,1511563613.985646,49.27912004083524,-122.9162710008276,347.102,0.08099867,200.000451804533,3,16,-9999,140219.536111875,0.0521087646484375,-0.3581390380859375,-0.384552001953125,140219.508066875,0.4961889890269853,-0.3595690914220294,-0.1012390035749262
2017-11-24 14:46:54.625 -0800,188,C4D50155-580C-4885-BACB-A13DEF47355A,1511563613.985646,49.27912004083524,-122.9162710008276,347.102,0.08099867,200.000451804533,3,16,-9999,140219.566171875,0.081756591796875,-0.3485107421875,-0.4519500732421875,140219.538125875,0.1995954015859507,-0.01643117129357088,0.04725353248571196
2017-11-24 14:46:54.655 -0800,189,C4D50155-580C-4885-BACB-A13DEF47355A,1511563613.985646,49.27912004083524,-122.9162710008276,347.102,0.08099867,200.000451804533,3,16,-9999,140219.596231875,0.1180877685546875,-0.3671112060546875,-0.511810302734375,140219.568185875,-0.1573842983081947,-0.02302648973315212,0.02149650368690159
2017-11-24 14:46:54.685 -0800,190,C4D50155-580C-4885-BACB-A13DEF47355A,1511563613.985646,49.27912004083524,-122.9162710008276,347.102,0.08099867,200.000451804533,3,16,-9999,140219.626291875,0.1703643798828125,-0.4701080322265625,-0.6175689697265625,140219.598245875,-0.241620083587401,0.06014562900667654,-0.1244979872712422
2017-11-24 14:46:54.715 -0800,191,C4D50155-580C-4885-BACB-A13DEF47355A,1511563613.985646,49.27912004083524,-122.9162710008276,347.102,0.08099867,200.000451804533,3,16,-9999,140219.656350875,0.1956329345703125,-0.529052734375,-0.7548828125,140219.628305875,-0.06383171027145522,0.07015405469930333,0.009624664179546367
2017-11-24 14:46:54.745 -0800,192,C4D50155-580C-4885-BACB-A13DEF47355A,1511563613.985646,49.27912004083524,-122.9162710008276,347.102,0.08099867,200.000451804533,3,16,-9999,140219.686410875,0.1444244384765625,-0.57781982421875,-0.85845947265625,140219.658365875,-0.2654732185229137,-0.3136647163445516,0.124085729934498
2017-11-24 14:46:54.775 -0800,193,C4D50155-580C-4885-BACB-A13DEF47355A,1511563613.985646,49.27912004083524,-122.9162710008276,347.102,0.08099867,200.000451804533,3,16,-9999,140219.716470875,0.0460662841796875,-0.5567626953125,-1.136581420898438,140219.688424875,-1.006801924833949,-0.6238947538312281,0.08198434889365332
2017-11-24 14:46:54.806 -0800,194,C4D50155-580C-4885-BACB-A13DEF47355A,1511563613.985646,49.27912004083524,-122.9162710008276,347.102,0.08099867,200.000451804533,3,16,-9999,140219.7465292917,0.1358184814453125,-0.4376373291015625,-1.65728759765625,140219.718484875,-1.868491397662788,0.0741256268329385,0.03051929346009005
2017-11-24 14:46:54.836 -0800,195,C4D50155-580C-4885-BACB-A13DEF47355A,1511563613.985646,49.27912004083524,-122.9162710008276,347.102,0.08099867,200.000451804533,3,16,-9999,140219.7765892917,0.0969085693359375,-0.4520721435546875,-1.679855346679688,140219.7485432917,-1.11834523129861,-0.133027293294439,-0.195407314455692
2017-11-24 14:46:54.882 -0800,196,C4D50155-580C-4885-BACB-A13DEF47355A,1511563613.985646,49.27912004083524,-122.9162710008276,347.102,0.08099867,200.000451804533,3,16,-9999,140219.8236472917,0.20709228515625,-0.4002838134765625,-1.481338500976562,140219.7786032917,-0.3996613837365183,0.00716656649340323,-0.6305902071277962
2017-11-24 14:46:54.916 -0800,197,C4D50155-580C-4885-BACB-A13DEF47355A,1511563613.985646,49.27912004083524,-122.9162710008276,347.102,0.08099867,200.000451804533,3,16,-9999,140219.8567282917,0.1379241943359375,-0.401123046875,-1.057769775390625,140219.8276452917,0.9904788778806352,-0.2494891919763672,-0.6384854144954452
2017-11-24 14:46:54.948 -0800,198,C4D50155-580C-4885-BACB-A13DEF47355A,1511563613.985646,49.27912004083524,-122.9162710008276,347.102,0.08099867,200.000451804533,3,16,-9999,140219.8897782917,0.1031951904296875,-0.4964599609375,-0.854949951171875,140219.8607562917,0.9657314534510738,-0.1467468339660912,-0.4887390621935977
2017-11-24 14:46:54.982 -0800,199,C4D50155-580C-4885-BACB-A13DEF47355A,1511563613.985646,49.27912004083524,-122.9162710008276,347.102,0.08099867,200.000451804533,3,16,-9999,140219.9228592917,0.1241302490234375,-0.42413330078125,-0.855010986328125,140219.8937762917,0.2140435831318485,0.4484536907000781,-0.07578930356591099
2017-11-24 14:46:55.014 -0800,200,C4D50155-580C-4885-BACB-A13DEF47355A,1511563613.985646,49.27912004083524,-122.9162710008276,347.102,0.08099867,200.000451804533,3,16,-9999,140219.9559102917,0.13775634765625,-0.26629638671875,-0.7541351318359375,140219.9268882917,-0.07803594626150184,0.4760996996600816,0.3049356732395989
2017-11-24 14:46:55.048 -0800,201,C4D50155-580C-4885-BACB-A13DEF47355A,1511563613.985646,49.27912004083524,-122.9162710008276,347.102,0.08099867,200.000451804533,3,16,-9999,140219.9889912917,0.0914459228515625,-0.1890411376953125,-0.517059326171875,140219.9599082917,0.2343539148692288,-0.01467987656073478,0.2372061603967037
2017-11-24 14:46:55.080 -0800,202,C4D50155-580C-4885-BACB-A13DEF47355A,1511563613.985646,49.27912004083524,-122.9162710008276,347.102,0.08099867,200.000451804533,3,16,-9999,140220.0220422917,0.0634307861328125,-0.21209716796875,-0.37042236328125,140219.9929892917,0.63700230008438,-0.2040657837917577,-0.001481250198302072
2017-11-24 14:46:55.114 -0800,203,C4D50155-580C-4885-BACB-A13DEF47355A,1511563613.985646,49.27912004083524,-122.9162710008276,347.102,0.08099867,200.000451804533,3,16,-9999,140220.0551232917,0.0611419677734375,-0.24835205078125,-0.3770904541015625,140220.0260392917,0.6705842287980612,0.007209709703062513,-0.1354174803727851
2017-11-24 14:46:55.146 -0800,204,C4D50155-580C-4885-BACB-A13DEF47355A,1511563613.985646,49.27912004083524,-122.9162710008276,347.102,0.08099867,200.000451804533,3,16,-9999,140220.0881732917,0.098907470703125,-0.2718353271484375,-0.512176513671875,140220.0591202917,0.4598024853693417,0.263398083401524,-0.1450762330142845
2017-11-24 14:46:55.180 -0800,205,C4D50155-580C-4885-BACB-A13DEF47355A,1511563614.985625,49.27911833673937,-122.9162680527499,347.1662,0.1157182,179.9587916475047,3,16,-9999,140220.1212542917,0.1059112548828125,-0.3876495361328125,-0.6664276123046875,140220.0921712917,0.2920747357033882,0.1110314469031476,-0.1761952703518604
2017-11-24 14:46:55.212 -0800,206,C4D50155-580C-4885-BACB-A13DEF47355A,1511563614.985625,49.27911833673937,-122.9162680527499,347.1662,0.1157182,179.9587916475047,3,16,-9999,140220.1543052917,0.00201416015625,-0.459686279296875,-0.783416748046875,140220.1252522917,-0.02142166886027037,-0.2035025252212059,-0.1072385728786567
2017-11-24 14:46:55.246 -0800,207,C4D50155-580C-4885-BACB-A13DEF47355A,1511563614.985625,49.27911833673937,-122.9162680527499,347.1662,0.1157182,179.9587916475047,3,16,-9999,140220.1873862917,-0.00201416015625,-0.57293701171875,-0.944671630859375,140220.1583032917,-0.2357739123624591,-0.09165854786947515,-0.08221551127627219
2017-11-24 14:46:55.279 -0800,208,C4D50155-580C-4885-BACB-A13DEF47355A,1511563614.985625,49.27911833673937,-122.9162680527499,347.1662,0.1157182,179.9587916475047,3,16,-9999,140220.2204062917,0.0985107421875,-0.679443359375,-1.287445068359375,140220.1913842917,-0.6045221211136647,0.3813172638319435,-0.08469917530888009
2017-11-24 14:46:55.313 -0800,209,C4D50155-580C-4885-BACB-A13DEF47355A,1511563614.985625,49.27911833673937,-122.9162680527499,347.1662,0.1157182,179.9587916475047,3,16,-9999,140220.2535172917,0.2548675537109375,-0.5745391845703125,-1.646347045898438,140220.2244342917,-1.008820600940229,0.7594411312007729,0.2363038814193849
2017-11-24 14:46:55.345 -0800,210,C4D50155-580C-4885-BACB-A13DEF47355A,1511563614.985625,49.27911833673937,-122.9162680527499,347.1662,0.1157182,179.9587916475047,3,16,-9999,140220.2865372917,0.320281982421875,-0.4993743896484375,-1.540634155273438,140220.2575152917,-0.9358566449747829,0.1491436789471625,0.2680855132361725
2017-11-24 14:46:55.383 -0800,211,C4D50155-580C-4885-BACB-A13DEF47355A,1511563614.985625,49.27911833673937,-122.9162680527499,347.1662,0.1157182,179.9587916475047,3,16,-9999,140220.3196492917,0.3839874267578125,-0.20989990234375,-1.325820922851562,140220.2905662917,-0.4272717063379148,-0.2098525665243908,0.4648616924921652
2017-11-24 14:46:55.411 -0800,212,C4D50155-580C-4885-BACB-A13DEF47355A,1511563614.985625,49.27911833673937,-122.9162680527499,347.1662,0.1157182,179.9587916475047,3,16,-9999,140220.3526692917,0.322296142578125,-0.0854339599609375,-0.813873291015625,140220.3236472917,0.2080027348312218,-1.045176211929228,0.4341740872511822
2017-11-24 14:46:55.445 -0800,213,C4D50155-580C-4885-BACB-A13DEF47355A,1511563614.985625,49.27911833673937,-122.9162680527499,347.1662,0.1157182,179.9587916475047,3,16,-9999,140220.3857502917,0.349639892578125,-0.270751953125,-0.6582794189453125,140220.3566972917,0.5796830839426046,-0.4863677835589911,0.1265273160218826
2017-11-24 14:46:55.477 -0800,214,C4D50155-580C-4885-BACB-A13DEF47355A,1511563614.985625,49.27911833673937,-122.9162680527499,347.1662,0.1157182,179.9587916475047,3,16,-9999,140220.4188012917,0.4676971435546875,-0.328887939453125,-0.95501708984375,140220.3897782917,-0.06170650772157198,1.348303598788663,0.252038902404009
2017-11-24 14:46:55.511 -0800,215,C4D50155-580C-4885-BACB-A13DEF47355A,1511563614.985625,49.27911833673937,-122.9162680527499,347.1662,0.1157182,179.9587916475047,3,16,-9999,140220.4518822917,0.368011474609375,-0.1937255859375,-0.96343994140625,140220.4227982917,-0.8057590951955401,1.123254236135953,0.7067550164074083
2017-11-24 14:46:55.543 -0800,216,C4D50155-580C-4885-BACB-A13DEF47355A,1511563614.985625,49.27911833673937,-122.9162680527499,347.1662,0.1157182,179.9587916475047,3,16,-9999,140220.4849322917,0.1903076171875,-0.21142578125,-0.705322265625,140220.4559102917,-0.8747165916170708,-0.07402735618871457,0.4111883438827083
2017-11-24 14:46:55.577 -0800,217,C4D50155-580C-4885-BACB-A13DEF47355A,1511563614.985625,49.27911833673937,-122.9162680527499,347.1662,0.1157182,179.9587916475047,3,16,-9999,140220.5180132917,0.0717926025390625,-0.2760009765625,-0.51605224609375,140220.4889302917,-0.2781453379378378,-0.4102232143036635,0.1459524130129206
2017-11-24 14:46:55.609 -0800,218,C4D50155-580C-4885-BACB-A13DEF47355A,1511563614.985625,49.27911833673937,-122.9162680527499,347.1662,0.1157182,179.9587916475047,3,16,-9999,140220.5510642917,-0.0634613037109375,-0.3308868408203125,-0.546417236328125,140220.5220422917,0.4947143967314084,-0.285444263537418,-0.00430739674709416
2017-11-24 14:46:55.643 -0800,219,C4D50155-580C-4885-BACB-A13DEF47355A,1511563614.985625,49.27911833673937,-122.9162680527499,347.1662,0.1157182,179.9587916475047,3,16,-9999,140220.5841452917,-0.0491943359375,-0.4272613525390625,-0.6617279052734375,140220.5550622917,0.4206425657524895,-0.305039270206003,-0.263094749353364
2017-11-24 14:46:55.675 -0800,220,C4D50155-580C-4885-BACB-A13DEF47355A,1511563614.985625,49.27911833673937,-122.9162680527499,347.1662,0.1157182,179.9587916475047,3,16,-9999,140220.6171952917,0.0726776123046875,-0.496063232421875,-0.7637481689453125,140220.5881432917,0.111214406070036,-0.3341345714312277,-0.2157080588131481
2017-11-24 14:46:55.709 -0800,221,C4D50155-580C-4885-BACB-A13DEF47355A,1511563614.985625,49.27911833673937,-122.9162680527499,347.1662,0.1157182,179.9587916475047,3,16,-9999,140220.6502762917,0.15460205078125,-0.46221923828125,-0.9187164306640625,140220.6211932917,0.2908060057600745,-0.1650715127947084,-0.02054788570661537
2017-11-24 14:46:55.741 -0800,222,C4D50155-580C-4885-BACB-A13DEF47355A,1511563614.985625,49.27911833673937,-122.9162680527499,347.1662,0.1157182,179.9587916475047,3,16,-9999,140220.6833272917,0.139495849609375,-0.557220458984375,-0.9008636474609375,140220.6542742917,0.4729329348078684,-0.5377609336431223,-0.1063528055000964
2017-11-24 14:46:55.776 -0800,223,C4D50155-580C-4885-BACB-A13DEF47355A,1511563614.985625,49.27911833673937,-122.9162680527499,347.1662,0.1157182,179.9587916475047,3,16,-9999,140220.7164082917,0.17779541015625,-0.508941650390625,-1.13494873046875,140220.6873252917,0.3333641189278677,-0.267161130021806,0.0682642755897831
2017-11-24 14:46:55.808 -0800,224,C4D50155-580C-4885-BACB-A13DEF47355A,1511563614.985625,49.27911833673937,-122.9162680527499,347.1662,0.1157182,179.9587916475047,3,16,-9999,140220.7494052917,0.2046966552734375,-0.3822479248046875,-1.455322265625,140220.7204062917,0.007737281915007211,-0.2017600189199671,0.09643625886507731
2017-11-24 14:46:55.842 -0800,225,C4D50155-580C-4885-BACB-A13DEF47355A,1511563614.985625,49.27911833673937,-122.9162680527499,347.1662,0.1157182,179.9587916475047,3,16,-9999,140220.7825172917,0.0898590087890625,-0.5196533203125,-1.3095703125,140220.7534332917,0.1626120835280203,-0.2376367935449695,-0.2538754182917277
2017-11-24 14:46:55.874 -0800,226,C4D50155-580C-4885-BACB-A13DEF47355A,1511563614.985625,49.27911833673937,-122.9162680527499,347.1662,0.1157182,179.9587916475047,3,16,-9999,140220.8155372917,0.1299896240234375,-0.399444580078125,-1.27923583984375,140220.7865142917,0.5243399333296679,0.844744045128774,-0.1775769183253935
2017-11-24 14:46:55.908 -0800,227,C4D50155-580C-4885-BACB-A13DEF47355A,1511563614.985625,49.27911833673937,-122.9162680527499,347.1662,0.1157182,179.9587916475047,3,16,-9999,140220.8486482917,0.0139617919921875,-0.3293304443359375,-0.8787841796875,140220.8195652917,0.5119453153003302,-0.1060627872573867,-0.07374825690647427
2017-11-24 14:46:55.940 -0800,228,C4D50155-580C-4885-BACB-A13DEF47355A,1511563614.985625,49.27911833673937,-122.9162680527499,347.1662,0.1157182,179.9587916475047,3,16,-9999,140220.8816682917,0.013427734375,-0.35931396484375,-0.7765960693359375,140220.8526462917,-0.09296935575801216,-0.2118331594270828,-0.1064540056215194
2017-11-24 14:46:55.974 -0800,229,C4D50155-580C-4885-BACB-A13DEF47355A,1511563614.985625,49.27911833673937,-122.9162680527499,347.1662,0.1157182,179.9587916475047,3,16,-9999,140220.9147492917,0.119598388671875,-0.3192291259765625,-0.974761962890625,140220.8856972917,-0.4237299684042184,0.4942637898749671,0.03271107503722526
2017-11-24 14:46:56.006 -0800,230,C4D50155-580C-4885-BACB-A13DEF47355A,1511563614.985625,49.27911833673937,-122.9162680527499,347.1662,0.1157182,179.9587916475047,3,16,-9999,140220.9478002917,0.1381072998046875,-0.252838134765625,-0.907745361328125,140220.9187782917,-0.5447152461976461,0.1931265832981482,0.08186077821907364
2017-11-24 14:46:56.040 -0800,231,C4D50155-580C-4885-BACB-A13DEF47355A,1511563614.985625,49.27911833673937,-122.9162680527499,347.1662,0.1157182,179.9587916475047,3,16,-9999,140220.9808812917,0.0985260009765625,-0.2485198974609375,-0.60888671875,140220.9517982917,-0.2982439483685568,-0.5413330316132455,-0.1206145657696887
2017-11-24 14:46:56.072 -0800,232,C4D50155-580C-4885-BACB-A13DEF47355A,1511563614.985625,49.27911833673937,-122.9162680527499,347.1662,0.1157182,179.9587916475047,3,16,-9999,140221.0139312917,0.0426483154296875,-0.3190155029296875,-0.402069091796875,140220.9849092917,0.1269201322826693,-0.7084027141738404,-0.4141348653127719
2017-11-24 14:46:56.106 -0800,233,C4D50155-580C-4885-BACB-A13DEF47355A,1511563614.985625,49.27911833673937,-122.9162680527499,347.1662,0.1157182,179.9587916475047,3,16,-9999,140221.0470122917,0.0097808837890625,-0.38360595703125,-0.415283203125,140221.0179292917,0.432351686117241,-0.21563775136037,-0.4583497309947035
2017-11-24 14:46:56.138 -0800,234,C4D50155-580C-4885-BACB-A13DEF47355A,1511563614.985625,49.27911833673937,-122.9162680527499,347.1662,0.1157182,179.9587916475047,3,16,-9999,140221.0800632917,0.032684326171875,-0.4182586669921875,-0.55133056640625,140221.0510412917,0.2044226473778283,0.262155718753002,-0.3476133623403367
2017-11-24 14:46:56.172 -0800,235,C4D50155-580C-4885-BACB-A13DEF47355A,1511563615.985604,49.27911798795925,-122.9162608857408,347.1943,0.2143917,170.5764613129816,3,16,-9999,140221.1131442917,0.0450439453125,-0.4755401611328125,-0.7567901611328125,140221.0840612917,-0.06663628521541766,0.3677495233424258,-0.3162088341339043
2017-11-24 14:46:56.204 -0800,236,C4D50155-580C-4885-BACB-A13DEF47355A,1511563615.985604,49.27911798795925,-122.9162608857408,347.1943,0.2143917,170.5764613129816,3,16,-9999,140221.1461952917,0.0103912353515625,-0.4814453125,-0.982757568359375,140221.1171422917,-0.1591475772659362,0.261581274905872,-0.1405675012887804
2017-11-24 14:46:56.238 -0800,237,C4D50155-580C-4885-BACB-A13DEF47355A,1511563615.985604,49.27911798795925,-122.9162608857408,347.1943,0.2143917,170.5764613129816,3,16,-9999,140221.1792762917,-0.0010833740234375,-0.5374755859375,-1.109481811523438,140221.1501922917,-0.1556694888822927,0.006888532475598958,-0.1145297753110757
2017-11-24 14:46:56.270 -0800,238,C4D50155-580C-4885-BACB-A13DEF47355A,1511563615.985604,49.27911798795925,-122.9162608857408,347.1943,0.2143917,170.5764613129816,3,16,-9999,140221.2123262917,0.070831298828125,-0.579620361328125,-1.241561889648438,140221.1832732917,0.01126357351438113,-0.04956755315688181,-0.2104877304443747
2017-11-24 14:46:56.304 -0800,239,C4D50155-580C-4885-BACB-A13DEF47355A,1511563615.985604,49.27911798795925,-122.9162608857408,347.1943,0.2143917,170.5764613129816,3,16,-9999,140221.2454072917,0.2081146240234375,-0.6040191650390625,-1.372512817382812,140221.2163242917,0.1101454132084782,-0.03488128500953084,-0.2437207850552555
2017-11-24 14:46:56.339 -0800,240,C4D50155-580C-4885-BACB-A13DEF47355A,1511563615.985604,49.27911798795925,-122.9162608857408,347.1943,0.2143917,170.5764613129816,3,16,-9999,140221.2784582917,0.215179443359375,-0.6564178466796875,-1.429489135742188,140221.2494052917,-0.03305728597893557,-0.262860391177437,-0.1288671693556263
2017-11-24 14:46:56.371 -0800,241,C4D50155-580C-4885-BACB-A13DEF47355A,1511563615.985604,49.27911798795925,-122.9162608857408,347.1943,0.2143917,170.5764613129816,3,16,-9999,140221.3115392917,0.3731231689453125,-0.2306671142578125,-1.53912353515625,140221.2824562917,-0.5377766462935537,0.1192909747079193,0.4763756031490138
2017-11-24 14:46:56.403 -0800,242,C4D50155-580C-4885-BACB-A13DEF47355A,1511563615.985604,49.27911798795925,-122.9162608857408,347.1943,0.2143917,170.5764613129816,3,16,-9999,140221.3445592917,0.2771759033203125,0.04522705078125,-0.96746826171875,140221.3155372917,-0.1584263932427427,-0.9226055543388757,0.602114090856015
2017-11-24 14:46:56.438 -0800,243,C4D50155-580C-4885-BACB-A13DEF47355A,1511563615.985604,49.27911798795925,-122.9162608857408,347.1943,0.2143917,170.5764613129816,3,16,-9999,140221.3776702917,0.244598388671875,-0.2088470458984375,-0.6088714599609375,140221.3485872917,0.5436462533360883,-0.9020110633131839,-0.0006364955005289379
2017-11-24 14:46:56.469 -0800,244,C4D50155-580C-4885-BACB-A13DEF47355A,1511563615.985604,49.27911798795925,-122.9162608857408,347.1943,0.2143917,170.5764613129816,3,16,-9999,140221.4106902917,0.3004150390625,-0.40264892578125,-0.8270111083984375,140221.3816682917,0.5000162178295382,0.8137168868488058,0.0239668519140591
2017-11-24 14:46:56.503 -0800,245,C4D50155-580C-4885-BACB-A13DEF47355A,1511563615.985604,49.27911798795925,-122.9162608857408,347.1943,0.2143917,170.5764613129816,3,16,-9999,140221.4438022917,0.257171630859375,-0.283233642578125,-0.8872833251953125,140221.4147192917,-0.1553147558250942,0.8546006706392663,0.5990147039793807
2017-11-24 14:46:56.535 -0800,246,C4D50155-580C-4885-BACB-A13DEF47355A,1511563615.985604,49.27911798795925,-122.9162608857408,347.1943,0.2143917,170.5764613129816,3,16,-9999,140221.4768222917,0.111053466796875,-0.255889892578125,-0.6253509521484375,140221.4478002917,-0.62981069987673,-0.2541031185649295,0.5535374999407516
2017-11-24 14:46:56.569 -0800,247,C4D50155-580C-4885-BACB-A13DEF47355A,1511563615.985604,49.27911798795925,-122.9162608857408,347.1943,0.2143917,170.5764613129816,3,16,-9999,140221.5099032917,0.0308837890625,-0.3081512451171875,-0.4326171875,140221.4808202917,-0.2101396552899014,-0.4361067432542527,0.3194365853750804
2017-11-24 14:46:56.601 -0800,248,C4D50155-580C-4885-BACB-A13DEF47355A,1511563615.985604,49.27911798795925,-122.9162608857408,347.1943,0.2143917,170.5764613129816,3,16,-9999,140221.5429542917,0.00372314453125,-0.378173828125,-0.4270477294921875,140221.5139312917,0.3778538228342955,0.0009523464058123356,0.2143716845781463
2017-11-24 14:46:56.635 -0800,249,C4D50155-580C-4885-BACB-A13DEF47355A,1511563615.985604,49.27911798795925,-122.9162608857408,347.1943,0.2143917,170.5764613129816,3,16,-9999,140221.5760352917,0.0364990234375,-0.4243927001953125,-0.570587158203125,140221.5469512917,0.1720021232155307,0.379148119124074,0.2040348911231127
2017-11-24 14:46:56.667 -0800,250,C4D50155-580C-4885-BACB-A13DEF47355A,1511563615.985604,49.27911798795925,-122.9162608857408,347.1943,0.2143917,170.5764613129816,3,16,-9999,140221.6090852917,0.10443115234375,-0.42584228515625,-0.731475830078125,140221.5800632917,-0.3478399973491024,0.4268629111105877,0.2838775258681243
2017-11-24 14:46:56.701 -0800,251,C4D50155-580C-4885-BACB-A13DEF47355A,1511563615.985604,49.27911798795925,-122.9162608857408,347.1943,0.2143917,170.5764613129816,3,16,-9999,140221.6421662917,0.12841796875,-0.47161865234375,-0.8660125732421875,140221.6130832917,-0.2692940557388504,0.3269624122995353,0.2776435983884669
2017-11-24 14:46:56.733 -0800,252,C4D50155-580C-4885-BACB-A13DEF47355A,1511563615.985604,49.27911798795925,-122.9162608857408,347.1943,0.2143917,170.5764613129816,3,16,-9999,140221.6752172917,0.110260009765625,-0.4646148681640625,-0.9495391845703125,140221.6461952917,0.06193101220146566,0.05883056006039541,0.2905631254686593
2017-11-24 14:46:56.767 -0800,253,C4D50155-580C-4885-BACB-A13DEF47355A,1511563615.985604,49.27911798795925,-122.9162608857408,347.1943,0.2143917,170.5764613129816,3,16,-9999,140221.7082982917,0.04052734375,-0.567718505859375,-1.003433227539062,140221.6792152917,0.01414804329104595,-0.3279810714164906,0.06115416811148955
2017-11-24 14:46:56.800 -0800,254,C4D50155-580C-4885-BACB-A13DEF47355A,1511563615.985604,49.27911798795925,-122.9162608857408,347.1943,0.2143917,170.5764613129816,3,16,-9999,140221.7413482917,0.1418609619140625,-0.5855865478515625,-1.328094482421875,140221.7122962917,-0.08533354028053697,0.2325411011152119,0.007492004778610913
2017-11-24 14:46:56.833 -0800,255,C4D50155-580C-4885-BACB-A13DEF47355A,1511563615.985604,49.27911798795925,-122.9162608857408,347.1943,0.2143917,170.5764613129816,3,16,-9999,140221.7744201667,0.1393280029296875,-0.616363525390625,-1.482833862304688,140221.7453462917,-0.1799215653490993,0.3283174286621676,-0.04081986792429853
2017-11-24 14:46:56.865 -0800,256,C4D50155-580C-4885-BACB-A13DEF47355A,1511563615.985604,49.27911798795925,-122.9162608857408,347.1943,0.2143917,170.5764613129816,3,16,-9999,140221.8074711667,0.121978759765625,-0.4454498291015625,-1.460098266601562,140221.7784181667,-0.2412602905241313,0.1439585043047783,-0.1200350619164875
2017-11-24 14:46:56.902 -0800,257,C4D50155-580C-4885-BACB-A13DEF47355A,1511563615.985604,49.27911798795925,-122.9162608857408,347.1943,0.2143917,170.5764613129816,3,16,-9999,140221.8405521667,-0.0710296630859375,-0.2881622314453125,-1.017471313476562,140221.8114691667,0.1350789925982361,-0.5464407082679085,-0.1838736964067769
2017-11-24 14:46:56.932 -0800,258,C4D50155-580C-4885-BACB-A13DEF47355A,1511563615.985604,49.27911798795925,-122.9162608857408,347.1943,0.2143917,170.5764613129816,3,16,-9999,140221.8735721667,-0.08709716796875,-0.3114013671875,-0.88140869140625,140221.8445501667,0.4086476882027727,-0.2568802629496641,-0.5131266935598893
2017-11-24 14:46:56.966 -0800,259,C4D50155-580C-4885-BACB-A13DEF47355A,1511563615.985604,49.27911798795925,-122.9162608857408,347.1943,0.2143917,170.5764613129816,3,16,-9999,140221.9066841667,0.0744171142578125,-0.35333251953125,-1.053634643554688,140221.8776001667,0.2614089683833438,0.9562740357879844,-0.5660969676415654
2017-11-24 14:46:56.998 -0800,260,C4D50155-580C-4885-BACB-A13DEF47355A,1511563615.985604,49.27911798795925,-122.9162608857408,347.1943,0.2143917,170.5764613129816,3,16,-9999,140221.9397041667,0.15472412109375,-0.2765350341796875,-1.012283325195312,140221.9106811667,-0.001337705815546801,0.8948948305643832,-0.2924598287970137
2017-11-24 14:46:57.032 -0800,261,C4D50155-580C-4885-BACB-A13DEF47355A,1511563615.985604,49.27911798795925,-122.9162608857408,347.1943,0.2143917,170.5764613129816,3,16,-9999,140221.9728151667,0.0914154052734375,-0.1825103759765625,-0.70941162109375,140221.9437321667,-0.2907711183497945,-0.09247267621471238,-0.1629977092538638
2017-11-24 14:46:57.064 -0800,262,C4D50155-580C-4885-BACB-A13DEF47355A,1511563615.985604,49.27911798795925,-122.9162608857408,347.1943,0.2143917,170.5764613129816,3,16,-9999,140222.0058351667,0.0597991943359375,-0.182220458984375,-0.4097900390625,140221.9768131667,-0.1514648901532756,-0.6463499955105582,-0.3468112182200048
2017-11-24 14:46:57.098 -0800,263,C4D50155-580C-4885-BACB-A13DEF47355A,1511563615.985604,49.27911798795925,-122.9162608857408,347.1943,0.2143917,170.5764613129816,3,16,-9999,140222.0389161667,0.052001953125,-0.2504730224609375,-0.2733612060546875,140222.0098641667,0.4078681809517065,-0.3501854433211352,-0.5537798475999488
2017-11-24 14:46:57.130 -0800,264,C4D50155-580C-4885-BACB-A13DEF47355A,1511563615.985604,49.27911798795925,-122.9162608857408,347.1943,0.2143917,170.5764613129816,3,16,-9999,140222.0719671667,0.0787506103515625,-0.3402099609375,-0.2917327880859375,140222.0429451667,0.8130095512632808,0.127548904616037,-0.6270300933825783
2017-11-24 14:46:57.164 -0800,265,C4D50155-580C-4885-BACB-A13DEF47355A,1511563616.985585,49.27911502131784,-122.9162574819573,347.2321,0.2143917,205.1081902092736,3,16,-9999,140222.1050481667,0.1127777099609375,-0.44903564453125,-0.540496826171875,140222.0759651667,0.5599914045264497,0.5502045538365175,-0.5030647383293519
2017-11-24 14:46:57.196 -0800,266,C4D50155-580C-4885-BACB-A13DEF47355A,1511563616.985585,49.27911502131784,-122.9162574819573,347.2321,0.2143917,205.1081902092736,3,16,-9999,140222.1380981667,0.15850830078125,-0.4331817626953125,-0.8833160400390625,140222.1090761667,-0.1063967476580827,0.6032611143375121,-0.236611742841398
2017-11-24 14:46:57.230 -0800,267,C4D50155-580C-4885-BACB-A13DEF47355A,1511563616.985585,49.27911502131784,-122.9162574819573,347.2321,0.2143917,205.1081902092736,3,16,-9999,140222.1711801667,0.066650390625,-0.558837890625,-1.05096435546875,140222.1420961667,-0.1276530342146591,-0.04397331697106135,-0.1981525009073457
2017-11-24 14:46:57.262 -0800,268,C4D50155-580C-4885-BACB-A13DEF47355A,1511563616.985585,49.27911502131784,-122.9162574819573,347.2321,0.2143917,205.1081902092736,3,16,-9999,140222.2042301667,0.0818634033203125,-0.6420745849609375,-1.270675659179688,140222.1752081667,-0.03418034101062199,-0.06330467069172853,-0.1815823126048727
2017-11-24 14:46:57.299 -0800,269,C4D50155-580C-4885-BACB-A13DEF47355A,1511563616.985585,49.27911502131784,-122.9162574819573,347.2321,0.2143917,205.1081902092736,3,16,-9999,140222.2373111667,0.2412261962890625,-0.7367401123046875,-1.572616577148438,140222.2082281667,-0.1239973129863073,0.3423581465612833,-0.2811706889361678
2017-11-24 14:46:57.328 -0800,270,C4D50155-580C-4885-BACB-A13DEF47355A,1511563616.985585,49.27911502131784,-122.9162574819573,347.2321,0.2143917,205.1081902092736,3,16,-9999,140222.2703621667,0.3228607177734375,-0.722930908203125,-1.517303466796875,140222.2413091667,0.1422205253773925,-0.01293177762120677,-0.07503935740294468
2017-11-24 14:46:57.363 -0800,271,C4D50155-580C-4885-BACB-A13DEF47355A,1511563616.985585,49.27911502131784,-122.9162574819573,347.2321,0.2143917,205.1081902092736,3,16,-9999,140222.3034431667,0.3968048095703125,-0.5015411376953125,-1.447845458984375,140222.2743591667,-0.02468164435063636,-0.2272600526735848,0.1659676665015201
2017-11-24 14:46:57.394 -0800,272,C4D50155-580C-4885-BACB-A13DEF47355A,1511563616.985585,49.27911502131784,-122.9162574819573,347.2321,0.2143917,205.1081902092736,3,16,-9999,140222.3364931667,0.3139801025390625,-0.18634033203125,-1.106430053710938,140222.3074401667,0.0684594852976859,-0.8783390233317966,0.4681570880250293
2017-11-24 14:46:57.428 -0800,273,C4D50155-580C-4885-BACB-A13DEF47355A,1511563616.985585,49.27911502131784,-122.9162574819573,347.2321,0.2143917,205.1081902092736,3,16,-9999,140222.3695741667,0.2342681884765625,-0.088531494140625,-0.6173553466796875,140222.3404911667,0.399819042873051,-1.611074507753473,0.4012579488100208
2017-11-24 14:46:57.461 -0800,274,C4D50155-580C-4885-BACB-A13DEF47355A,1511563616.985585,49.27911502131784,-122.9162574819573,347.2321,0.2143917,205.1081902092736,3,16,-9999,140222.4025941667,0.26556396484375,-0.3481903076171875,-0.678070068359375,140222.3735721667,0.2109279509725648,-0.1540204595353157,-0.1910967219152898
2017-11-24 14:46:57.494 -0800,275,C4D50155-580C-4885-BACB-A13DEF47355A,1511563616.985585,49.27911502131784,-122.9162574819573,347.2321,0.2143917,205.1081902092736,3,16,-9999,140222.4357061667,0.3079071044921875,-0.419342041015625,-0.893829345703125,140222.4066231667,-0.167844662437808,1.20663887513077,0.07319165623864771
2017-11-24 14:46:57.527 -0800,276,C4D50155-580C-4885-BACB-A13DEF47355A,1511563616.985585,49.27911502131784,-122.9162574819573,347.2321,0.2143917,205.1081902092736,3,16,-9999,140222.4687261667,0.2021942138671875,-0.3568572998046875,-0.794708251953125,140222.4397041667,-0.3772828410965824,0.5222429602873395,0.3984232801457405
2017-11-24 14:46:57.561 -0800,277,C4D50155-580C-4885-BACB-A13DEF47355A,1511563616.985585,49.27911502131784,-122.9162574819573,347.2321,0.2143917,205.1081902092736,3,16,-9999,140222.5018371667,0.111846923828125,-0.3738555908203125,-0.5690460205078125,140222.4727541667,-0.2680122763061953,-0.2470468069406555,0.2741553899926811
2017-11-24 14:46:57.593 -0800,278,C4D50155-580C-4885-BACB-A13DEF47355A,1511563616.985585,49.27911502131784,-122.9162574819573,347.2321,0.2143917,205.1081902092736,3,16,-9999,140222.5348571667,0.07171630859375,-0.3833160400390625,-0.4188079833984375,140222.5058351667,0.2055507624155858,-0.3425019572601476,0.2571532369613972
2017-11-24 14:46:57.627 -0800,279,C4D50155-580C-4885-BACB-A13DEF47355A,1511563616.985585,49.27911502131784,-122.9162574819573,347.2321,0.2143917,205.1081902092736,3,16,-9999,140222.5679391667,0.0601806640625,-0.4113311767578125,-0.4320220947265625,140222.5388861667,0.4948369021415521,-0.1501096074745343,0.3033777240019025
2017-11-24 14:46:57.659 -0800,280,C4D50155-580C-4885-BACB-A13DEF47355A,1511563616.985585,49.27911502131784,-122.9162574819573,347.2321,0.2143917,205.1081902092736,3,16,-9999,140222.6009891667,0.0722503662109375,-0.4425811767578125,-0.5206451416015625,140222.5719671667,0.2197651184177748,-0.01585113480815162,0.3294596584537026
2017-11-24 14:46:57.693 -0800,281,C4D50155-580C-4885-BACB-A13DEF47355A,1511563616.985585,49.27911502131784,-122.9162574819573,347.2321,0.2143917,205.1081902092736,3,16,-9999,140222.6340701667,0.1148529052734375,-0.5260009765625,-0.6321563720703125,140222.6049871667,-0.1088340726877232,-0.02784654499008653,0.3244209576712727
2017-11-24 14:46:57.725 -0800,282,C4D50155-580C-4885-BACB-A13DEF47355A,1511563616.985585,49.27911502131784,-122.9162574819573,347.2321,0.2143917,205.1081902092736,3,16,-9999,140222.6671211667,0.140167236328125,-0.4965057373046875,-0.801055908203125,140222.6380981667,-0.2925250762437206,0.02867185861190209,0.4041165859241119
2017-11-24 14:46:57.760 -0800,283,C4D50155-580C-4885-BACB-A13DEF47355A,1511563616.985585,49.27911502131784,-122.9162574819573,347.2321,0.2143917,205.1081902092736,3,16,-9999,140222.7002021667,0.108062744140625,-0.4639129638671875,-0.8589019775390625,140222.6711181667,-0.60951102078371,-0.3131957336765887,0.3144788446897888
2017-11-24 14:46:57.792 -0800,284,C4D50155-580C-4885-BACB-A13DEF47355A,1511563616.985585,49.27911502131784,-122.9162574819573,347.2321,0.2143917,205.1081902092736,3,16,-9999,140222.7332521667,0.130462646484375,-0.4630126953125,-1.208633422851562,140222.7042301667,-1.115071940002793,-0.002835467612607365,0.002781405442478757
2017-11-24 14:46:57.826 -0800,285,C4D50155-580C-4885-BACB-A13DEF47355A,1511563616.985585,49.27911502131784,-122.9162574819573,347.2321,0.2143917,205.1081902092736,3,16,-9999,140222.76632125,0.35174560546875,-0.4746246337890625,-1.69439697265625,140222.7372501667,-0.963150584038678,1.14436005409094,-0.3660008917706798
2017-11-24 14:46:57.863 -0800,286,C4D50155-580C-4885-BACB-A13DEF47355A,1511563616.985585,49.27911502131784,-122.9162574819573,347.2321,0.2143917,205.1081902092736,3,16,-9999,140222.79937225,0.2910919189453125,-0.5958251953125,-1.6943359375,140222.77031925,-0.03322399986317453,0.6877882494399731,-0.7987192951700246
2017-11-24 14:46:57.891 -0800,287,C4D50155-580C-4885-BACB-A13DEF47355A,1511563616.985585,49.27911502131784,-122.9162574819573,347.2321,0.2143917,205.1081902092736,3,16,-9999,140222.83245325,0.1490631103515625,-0.428955078125,-1.307891845703125,140222.80337025,0.08496016509570786,0.00894822126266624,-0.4195607897176994
2017-11-24 14:46:57.923 -0800,288,C4D50155-580C-4885-BACB-A13DEF47355A,1511563616.985585,49.27911502131784,-122.9162574819573,347.2321,0.2143917,205.1081902092736,3,16,-9999,140222.86550325,-0.06414794921875,-0.40545654296875,-0.810760498046875,140222.83645125,0.339962366844648,-1.049602385660939,-0.3238121590460805
2017-11-24 14:46:57.957 -0800,289,C4D50155-580C-4885-BACB-A13DEF47355A,1511563616.985585,49.27911502131784,-122.9162574819573,347.2321,0.2143917,205.1081902092736,3,16,-9999,140222.89858425,-0.075469970703125,-0.3963470458984375,-0.81158447265625,140222.86950125,0.07573657297632742,-0.1769422870376277,-0.2691603650521284
2017-11-24 14:46:57.990 -0800,290,C4D50155-580C-4885-BACB-A13DEF47355A,1511563616.985585,49.27911502131784,-122.9162574819573,347.2321,0.2143917,205.1081902092736,3,16,-9999,140222.93160525,0.0389556884765625,-0.2846527099609375,-0.9792022705078125,140222.90258225,-0.05839779638325754,0.9922962190085052,-0.07313146879801191
2017-11-24 14:46:58.024 -0800,291,C4D50155-580C-4885-BACB-A13DEF47355A,1511563616.985585,49.27911502131784,-122.9162574819573,347.2321,0.2143917,205.1081902092736,3,16,-9999,140222.96471625,0.076629638671875,-0.171844482421875,-0.85955810546875,140222.93563325,0.3165060429115572,0.6634387012772696,0.03722886151043569
2017-11-24 14:46:58.055 -0800,292,C4D50155-580C-4885-BACB-A13DEF47355A,1511563616.985585,49.27911502131784,-122.9162574819573,347.2321,0.2143917,205.1081902092736,3,16,-9999,140222.99773625,0.033050537109375,-0.2113800048828125,-0.5209808349609375,140222.96871425,0.6520140065169386,-0.3830725533064147,-0.2207201279846772
2017-11-24 14:46:58.090 -0800,293,C4D50155-580C-4885-BACB-A13DEF47355A,1511563616.985585,49.27911502131784,-122.9162574819573,347.2321,0.2143917,205.1081902092736,3,16,-9999,140223.03084825,0.0462493896484375,-0.259002685546875,-0.2838897705078125,140223.00176425,0.9223999583027216,-0.8302215613884629,-0.3114545589558949
2017-11-24 14:46:58.122 -0800,294,C4D50155-580C-4885-BACB-A13DEF47355A,1511563616.985585,49.27911502131784,-122.9162574819573,347.2321,0.2143917,205.1081902092736,3,16,-9999,140223.06386825,0.059844970703125,-0.3760986328125,-0.29791259765625,140223.03484525,1.034189074535997,-0.4645077583832937,-0.2532032364325917
2017-11-24 14:46:58.156 -0800,295,C4D50155-580C-4885-BACB-A13DEF47355A,1511563616.985585,49.27911502131784,-122.9162574819573,347.2321,0.2143917,205.1081902092736,3,16,-9999,140223.09697925,0.0528106689453125,-0.420379638671875,-0.5009918212890625,140223.06789625,0.7460803183279544,0.02479456238085572,0.04894517241013029
2017-11-24 14:46:58.188 -0800,296,C4D50155-580C-4885-BACB-A13DEF47355A,1511563617.985564,49.27910756412398,-122.9162646788239,347.2656,0.5161052,232.7864799716181,3,16,-9999,140223.12999925,0.0750579833984375,-0.4648895263671875,-0.7672576904296875,140223.10097725,-0.07426171436464155,0.1260644586244269,0.2339688217756034
2017-11-24 14:46:58.222 -0800,297,C4D50155-580C-4885-BACB-A13DEF47355A,1511563617.985564,49.27910756412398,-122.9162646788239,347.2656,0.5161052,232.7864799716181,3,16,-9999,140223.16308025,0.062347412109375,-0.5586395263671875,-0.9385528564453125,140223.13399725,-0.5389220718783968,-0.09371583981156137,0.3109954299839652
2017-11-24 14:46:58.254 -0800,298,C4D50155-580C-4885-BACB-A13DEF47355A,1511563617.985564,49.27910756412398,-122.9162646788239,347.2656,0.5161052,232.7864799716181,3,16,-9999,140223.19613125,0.0948333740234375,-0.620147705078125,-1.119979858398438,140223.16710925,-0.6578777546050751,-0.0212040885992109,0.2472878230193077
2017-11-24 14:46:58.288 -0800,299,C4D50155-580C-4885-BACB-A13DEF47355A,1511563617.985564,49.27910756412398,-122.9162646788239,347.2656,0.5161052,232.7864799716181,3,16,-9999,140223.22921225,0.188629150390625,-0.7393646240234375,-1.414352416992188,140223.20012925,-0.5156159502307863,0.3906074349785759,-0.04474696526772937
2017-11-24 14:46:58.320 -0800,300,C4D50155-580C-4885-BACB-A13DEF47355A,1511563617.985564,49.27910756412398,-122.9162646788239,347.2656,0.5161052,232.7864799716181,3,16,-9999,140223.26226225,0.250152587890625,-0.7320404052734375,-1.509735107421875,140223.23324025,-0.2816841463943351,0.04737523894752858,-0.04231496656026901
2017-11-24 14:46:58.354 -0800,301,C4D50155-580C-4885-BACB-A13DEF47355A,1511563617.985564,49.27910756412398,-122.9162646788239,347.2656,0.5161052,232.7864799716181,3,16,-9999,140223.29534425,0.2016754150390625,-0.68463134765625,-1.379074096679688,140223.26626025,-0.4999365893129448,-0.5611245795702784,-0.06908719236661758
2017-11-24 14:46:58.386 -0800,302,C4D50155-580C-4885-BACB-A13DEF47355A,1511563617.985564,49.27910756412398,-122.9162646788239,347.2656,0.5161052,232.7864799716181,3,16,-9999,140223.32839425,0.2730560302734375,-0.29840087890625,-1.181686401367188,140223.29934125,-0.3287730955246801,-0.4627157172857794,0.5437088376217052
2017-11-24 14:46:58.422 -0800,303,C4D50155-580C-4885-BACB-A13DEF47355A,1511563617.985564,49.27910756412398,-122.9162646788239,347.2656,0.5161052,232.7864799716181,3,16,-9999,140223.36147525,0.11859130859375,-0.1368865966796875,-0.656463623046875,140223.33239225,0.4995360498849969,-1.333900957297405,0.7845086675933618
2017-11-24 14:46:58.453 -0800,304,C4D50155-580C-4885-BACB-A13DEF47355A,1511563617.985564,49.27910756412398,-122.9162646788239,347.2656,0.5161052,232.7864799716181,3,16,-9999,140223.39452625,0.1119537353515625,-0.2923736572265625,-0.682159423828125,140223.36547325,0.007057909520927997,-0.3856331826945259,0.3023023395537285
2017-11-24 14:46:58.487 -0800,305,C4D50155-580C-4885-BACB-A13DEF47355A,1511563617.985564,49.27910756412398,-122.9162646788239,347.2656,0.5161052,232.7864799716181,3,16,-9999,140223.42760725,0.3176422119140625,-0.1949005126953125,-1.090011596679688,140223.39852325,-0.6923148243447808,1.761286380613866,0.3115722706760763
2017-11-24 14:46:58.519 -0800,306,C4D50155-580C-4885-BACB-A13DEF47355A,1511563617.985564,49.27910756412398,-122.9162646788239,347.2656,0.5161052,232.7864799716181,3,16,-9999,140223.46065725,0.2799224853515625,-0.1544189453125,-1.026535034179688,140223.43160525,-0.3630024386993596,1.398614972838004,0.3976110160132663
2017-11-24 14:46:58.552 -0800,307,C4D50155-580C-4885-BACB-A13DEF47355A,1511563617.985564,49.27910756412398,-122.9162646788239,347.2656,0.5161052,232.7864799716181,3,16,-9999,140223.49373825,0.097625732421875,-0.2630767822265625,-0.6357269287109375,140223.46465525,-0.1338483458585104,-0.2235209745031135,-0.03704563602743823
2017-11-24 14:46:58.585 -0800,308,C4D50155-580C-4885-BACB-A13DEF47355A,1511563617.985564,49.27910756412398,-122.9162646788239,347.2656,0.5161052,232.7864799716181,3,16,-9999,140223.52675825,0.0430450439453125,-0.3105010986328125,-0.3994598388671875,140223.49773625,-0.1669820645607313,-0.5436579712448847,-0.1777510890606847
2017-11-24 14:46:58.619 -0800,309,C4D50155-580C-4885-BACB-A13DEF47355A,1511563617.985564,49.27910756412398,-122.9162646788239,347.2656,0.5161052,232.7864799716181,3,16,-9999,140223.55987025,0.0411224365234375,-0.378814697265625,-0.3903350830078125,140223.53078725,0.03188363088653764,-0.1770245787153111,-0.1529842235551658
2017-11-24 14:46:58.651 -0800,310,C4D50155-580C-4885-BACB-A13DEF47355A,1511563617.985564,49.27910756412398,-122.9162646788239,347.2656,0.5161052,232.7864799716181,3,16,-9999,140223.59289025,0.12060546875,-0.4763336181640625,-0.5236663818359375,140223.56386825,0.1105821716272512,0.316029603392542,-0.05887769801168981
2017-11-24 14:46:58.685 -0800,311,C4D50155-580C-4885-BACB-A13DEF47355A,1511563617.985564,49.27910756412398,-122.9162646788239,347.2656,0.5161052,232.7864799716181,3,16,-9999,140223.62600125,0.1905364990234375,-0.5358428955078125,-0.706451416015625,140223.59691825,-0.0409295901612098,0.538828328608026,0.1685791622664518
2017-11-24 14:46:58.717 -0800,312,C4D50155-580C-4885-BACB-A13DEF47355A,1511563617.985564,49.27910756412398,-122.9162646788239,347.2656,0.5161052,232.7864799716181,3,16,-9999,140223.65902225,0.256927490234375,-0.5564117431640625,-0.87274169921875,140223.62999925,-0.1656209229275918,0.5067865059527377,0.4841887851550883
2017-11-24 14:46:58.751 -0800,313,C4D50155-580C-4885-BACB-A13DEF47355A,1511563617.985564,49.27910756412398,-122.9162646788239,347.2656,0.5161052,232.7864799716181,3,16,-9999,140223.69210325,0.2427825927734375,-0.5323944091796875,-0.9750518798828125,140223.66301925,-0.2118691121017988,-0.01006435207551845,0.6373604952509957
2017-11-24 14:46:58.783 -0800,314,C4D50155-580C-4885-BACB-A13DEF47355A,1511563617.985564,49.27910756412398,-122.9162646788239,347.2656,0.5161052,232.7864799716181,3,16,-9999,140223.72515325,0.098602294921875,-0.5334625244140625,-1.221435546875,140223.69613125,-0.8933786929558011,-0.2053672706164794,0.2914126738563945
2017-11-24 14:46:58.822 -0800,315,C4D50155-580C-4885-BACB-A13DEF47355A,1511563617.985564,49.27910756412398,-122.9162646788239,347.2656,0.5161052,232.7864799716181,3,16,-9999,140223.7582315417,0.1371002197265625,-0.5024566650390625,-1.385208129882812,140223.72915125,-0.7934702046614784,-0.03452655195233229,0.1373344237254242
2017-11-24 14:46:58.850 -0800,316,C4D50155-580C-4885-BACB-A13DEF47355A,1511563617.985564,49.27910756412398,-122.9162646788239,347.2656,0.5161052,232.7864799716181,3,16,-9999,140223.7912825417,0.126434326171875,-0.527374267578125,-1.59698486328125,140223.7622595417,-0.251366720544873,0.2383310796411532,-0.06788184565724772
2017-11-24 14:46:58.883 -0800,317,C4D50155-580C-4885-BACB-A13DEF47355A,1511563617.985564,49.27910756412398,-122.9162646788239,347.2656,0.5161052,232.7864799716181,3,16,-9999,140223.8243635417,0.220489501953125,-0.2833404541015625,-1.511611938476562,140223.7952795417,-0.2332257998314713,0.7496556120913859,-0.03759797563752067
2017-11-24 14:46:58.915 -0800,318,C4D50155-580C-4885-BACB-A13DEF47355A,1511563617.985564,49.27910756412398,-122.9162646788239,347.2656,0.5161052,232.7864799716181,3,16,-9999,140223.8574135417,-0.0001220703125,-0.2729339599609375,-0.984649658203125,140223.8283915417,0.8169190717435172,-0.377198685206136,-0.1389578867259365
2017-11-24 14:46:58.950 -0800,319,C4D50155-580C-4885-BACB-A13DEF47355A,1511563617.985564,49.27910756412398,-122.9162646788239,347.2656,0.5161052,232.7864799716181,3,16,-9999,140223.8904945417,-0.0259552001953125,-0.2729339599609375,-0.8200225830078125,140223.8614115417,0.7073726034641977,-0.07245902062276691,-0.1285486552892528
2017-11-24 14:46:58.982 -0800,320,C4D50155-580C-4885-BACB-A13DEF47355A,1511563617.985564,49.27910756412398,-122.9162646788239,347.2656,0.5161052,232.7864799716181,3,16,-9999,140223.9235455417,0.039764404296875,-0.237823486328125,-0.8605194091796875,140223.8944925417,0.07139215829008116,0.5431011042609492,-0.01119592922269312
2017-11-24 14:46:59.016 -0800,321,C4D50155-580C-4885-BACB-A13DEF47355A,1511563617.985564,49.27910756412398,-122.9162646788239,347.2656,0.5161052,232.7864799716181,3,16,-9999,140223.9566265417,0.0542449951171875,-0.13958740234375,-0.7735443115234375,140223.9275435417,-0.1728982769223423,0.4733073752571335,0.188315849105029
2017-11-24 14:46:59.047 -0800,322,C4D50155-580C-4885-BACB-A13DEF47355A,1511563617.985564,49.27910756412398,-122.9162646788239,347.2656,0.5161052,232.7864799716181,3,16,-9999,140223.9896765417,0.045501708984375,-0.124755859375,-0.6113739013671875,140223.9606245417,-0.1113920389147443,0.1062697148740859,0.05137344269206454
2017-11-24 14:46:59.081 -0800,323,C4D50155-580C-4885-BACB-A13DEF47355A,1511563617.985564,49.27910756412398,-122.9162646788239,347.2656,0.5161052,232.7864799716181,3,16,-9999,140224.0227585417,0.049072265625,-0.1956939697265625,-0.500762939453125,140223.9936745417,0.07951639751147689,-0.04760054237574928,-0.2081579971227734
2017-11-24 14:46:59.114 -0800,324,C4D50155-580C-4885-BACB-A13DEF47355A,1511563617.985564,49.27910756412398,-122.9162646788239,347.2656,0.5161052,232.7864799716181,3,16,-9999,140224.0557785417,0.0748138427734375,-0.24853515625,-0.493408203125,140224.0267555417,0.2115743001691271,0.05831443944113805,-0.2767173509613373
2017-11-24 14:46:59.148 -0800,325,C4D50155-580C-4885-BACB-A13DEF47355A,1511563617.985564,49.27910756412398,-122.9162646788239,347.2656,0.5161052,232.7864799716181,3,16,-9999,140224.0888895417,0.089813232421875,-0.3164215087890625,-0.52716064453125,140224.0598065417,0.2622433367528657,0.03588636200492674,-0.2545646443818402
2017-11-24 14:46:59.180 -0800,326,C4D50155-580C-4885-BACB-A13DEF47355A,1511563618.985543,49.27910043093293,-122.9162771830248,347.2701,0.5249262,227.7884617257046,3,16,-9999,140224.1219095417,0.071044921875,-0.38433837890625,-0.67486572265625,140224.0928875417,0.0742300227476696,0.0118068583767573,-0.1942866562689867
2017-11-24 14:46:59.214 -0800,327,C4D50155-580C-4885-BACB-A13DEF47355A,1511563618.985543,49.27910043093293,-122.9162771830248,347.2701,0.5249262,227.7884617257046,3,16,-9999,140224.1550215417,0.0410308837890625,-0.3801422119140625,-0.867889404296875,140224.1259375417,-0.1338302363630979,0.06406526949905517,-0.06932048527810852
2017-11-24 14:46:59.246 -0800,328,C4D50155-580C-4885-BACB-A13DEF47355A,1511563618.985543,49.27910043093293,-122.9162771830248,347.2701,0.5249262,227.7884617257046,3,16,-9999,140224.1880415417,-0.0078887939453125,-0.3488311767578125,-0.984588623046875,140224.1590195417,-0.2016958367376961,-0.07027150010337582,-0.2389345519441651
2017-11-24 14:46:59.280 -0800,329,C4D50155-580C-4885-BACB-A13DEF47355A,1511563618.985543,49.27910043093293,-122.9162771830248,347.2701,0.5249262,227.7884617257046,3,16,-9999,140224.2211225417,0.1760711669921875,-0.4519500732421875,-1.238113403320312,140224.1920695417,-0.2475701180948561,0.4272024641495727,-0.7660865170688477
2017-11-24 14:46:59.313 -0800,330,C4D50155-580C-4885-BACB-A13DEF47355A,1511563618.985543,49.27910043093293,-122.9162771830248,347.2701,0.5249262,227.7884617257046,3,16,-9999,140224.2541725417,0.4197845458984375,-0.492706298828125,-1.488677978515625,140224.2251505417,0.4148885399012643,1.060539988257895,-0.9713991928829805
2017-11-24 14:46:59.347 -0800,331,C4D50155-580C-4885-BACB-A13DEF47355A,1511563618.985543,49.27910043093293,-122.9162771830248,347.2701,0.5249262,227.7884617257046,3,16,-9999,140224.2872535417,0.5426483154296875,-0.7417449951171875,-1.406509399414062,140224.2581705417,0.8805611649453587,0.8307185072478718,-1.224972076074875
2017-11-24 14:46:59.383 -0800,332,C4D50155-580C-4885-BACB-A13DEF47355A,1511563618.985543,49.27910043093293,-122.9162771830248,347.2701,0.5249262,227.7884617257046,3,16,-9999,140224.3203045417,0.5321044921875,-0.5032196044921875,-1.39715576171875,140224.2912825417,0.359958978205617,0.7826154263744245,-0.2467029928439263
2017-11-24 14:46:59.413 -0800,333,C4D50155-580C-4885-BACB-A13DEF47355A,1511563618.985543,49.27910043093293,-122.9162771830248,347.2701,0.5249262,227.7884617257046,3,16,-9999,140224.3533855417,0.474853515625,-0.1854095458984375,-0.9800872802734375,140224.3243025417,-0.2682200028712214,-0.4308832190921713,0.4555693908166608
2017-11-24 14:46:59.445 -0800,334,C4D50155-580C-4885-BACB-A13DEF47355A,1511563618.985543,49.27910043093293,-122.9162771830248,347.2701,0.5249262,227.7884617257046,3,16,-9999,140224.3864365417,0.31793212890625,-0.29815673828125,-0.58331298828125,140224.3574135417,0.245281131137933,-1.39728712071849,0.2851212220971913
2017-11-24 14:46:59.479 -0800,335,C4D50155-580C-4885-BACB-A13DEF47355A,1511563618.985543,49.27910043093293,-122.9162771830248,347.2701,0.5249262,227.7884617257046,3,16,-9999,140224.4195175417,0.348419189453125,-0.39617919921875,-0.81591796875,140224.3904335417,0.1176230369172027,0.3822823934109882,0.3136431447397219
2017-11-24 14:46:59.510 -0800,336,C4D50155-580C-4885-BACB-A13DEF47355A,1511563618.985543,49.27910043093293,-122.9162771830248,347.2701,0.5249262,227.7884617257046,3,16,-9999,140224.4525675417,0.3954315185546875,-0.1815643310546875,-0.972198486328125,140224.4235145417,-0.5743684796712424,1.134139108143325,0.8833476303939086
2017-11-24 14:46:59.544 -0800,337,C4D50155-580C-4885-BACB-A13DEF47355A,1511563618.985543,49.27910043093293,-122.9162771830248,347.2701,0.5249262,227.7884617257046,3,16,-9999,140224.4856485417,0.3009490966796875,-0.1777496337890625,-0.7411041259765625,140224.4565655417,-0.6843490432082447,-0.09800299653437093,0.5475885306977326
2017-11-24 14:46:59.577 -0800,338,C4D50155-580C-4885-BACB-A13DEF47355A,1511563618.985543,49.27910043093293,-122.9162771830248,347.2701,0.5249262,227.7884617257046,3,16,-9999,140224.5186995417,0.187652587890625,-0.263580322265625,-0.4639892578125,140224.4896465417,-0.1215509332089606,-0.9261976260171746,0.1273949739050304
2017-11-24 14:46:59.611 -0800,339,C4D50155-580C-4885-BACB-A13DEF47355A,1511563618.985543,49.27910043093293,-122.9162771830248,347.2701,0.5249262,227.7884617257046,3,16,-9999,140224.5517805417,0.125213623046875,-0.318450927734375,-0.3355560302734375,140224.5226965417,0.49278387125721,-0.8776479330289211,0.0984528044424853
2017-11-24 14:46:59.643 -0800,340,C4D50155-580C-4885-BACB-A13DEF47355A,1511563618.985543,49.27910043093293,-122.9162771830248,347.2701,0.5249262,227.7884617257046,3,16,-9999,140224.5848005417,0.1018829345703125,-0.44158935546875,-0.3841400146484375,140224.5557785417,0.4812483889955318,-0.4510870243859484,0.09501466347519301
2017-11-24 14:46:59.677 -0800,341,C4D50155-580C-4885-BACB-A13DEF47355A,1511563618.985543,49.27910043093293,-122.9162771830248,347.2701,0.5249262,227.7884617257046,3,16,-9999,140224.6179115417,0.198333740234375,-0.5401763916015625,-0.5754547119140625,140224.5888285417,-0.1073743940942508,0.004084223847745519,0.2575234163529182
2017-11-24 14:46:59.709 -0800,342,C4D50155-580C-4885-BACB-A13DEF47355A,1511563618.985543,49.27910043093293,-122.9162771830248,347.2701,0.5249262,227.7884617257046,3,16,-9999,140224.6509315417,0.3272705078125,-0.6955413818359375,-0.839569091796875,140224.6219095417,-0.4805290691851014,0.2241305720766326,0.5244813471835511
2017-11-24 14:46:59.743 -0800,343,C4D50155-580C-4885-BACB-A13DEF47355A,1511563618.985543,49.27910043093293,-122.9162771830248,347.2701,0.5249262,227.7884617257046,3,16,-9999,140224.6840435417,0.4212646484375,-0.709564208984375,-1.174209594726562,140224.6549605417,-0.3797622440714462,0.2297951157152312,0.8337137645258839
2017-11-24 14:46:59.776 -0800,344,C4D50155-580C-4885-BACB-A13DEF47355A,1511563618.985543,49.27910043093293,-122.9162771830248,347.2701,0.5249262,227.7884617257046,3,16,-9999,140224.7170635417,0.2721099853515625,-0.6197357177734375,-1.333389282226562,140224.6880415417,-0.05359158956399154,-0.2464308177805202,0.9406908149854948
2017-11-24 14:46:59.809 -0800,345,C4D50155-580C-4885-BACB-A13DEF47355A,1511563618.985543,49.27910043093293,-122.9162771830248,347.2701,0.5249262,227.7884617257046,3,16,-9999,140224.7501215,0.0347137451171875,-0.3407745361328125,-1.341445922851562,140224.7210915417,-0.1722434056102918,-0.4438781136312129,1.17412221085312
2017-11-24 14:46:59.841 -0800,346,C4D50155-580C-4885-BACB-A13DEF47355A,1511563618.985543,49.27910043093293,-122.9162771830248,347.2701,0.5249262,227.7884617257046,3,16,-9999,140224.7831725,-0.147613525390625,-0.4533538818359375,-1.169540405273438,140224.7541495,-0.1957173064065773,-0.8405128147888562,0.4006182575161838
2017-11-24 14:46:59.875 -0800,347,C4D50155-580C-4885-BACB-A13DEF47355A,1511563618.985543,49.27910043093293,-122.9162771830248,347.2701,0.5249262,227.7884617257046,3,16,-9999,140224.8162535,-0.0187530517578125,-0.32977294921875,-1.353485107421875,140224.7871695,-0.63703452433357,0.3187755887925227,-0.07587931841075567
2017-11-24 14:46:59.908 -0800,348,C4D50155-580C-4885-BACB-A13DEF47355A,1511563618.985543,49.27910043093293,-122.9162771830248,347.2701,0.5249262,227.7884617257046,3,16,-9999,140224.8493035,0.009552001953125,-0.1925201416015625,-1.267745971679688,140224.8202815,-0.1113398409573787,0.6498829450126572,-0.1887323674995174
2017-11-24 14:46:59.943 -0800,349,C4D50155-580C-4885-BACB-A13DEF47355A,1511563618.985543,49.27910043093293,-122.9162771830248,347.2701,0.5249262,227.7884617257046,3,16,-9999,140224.8823845,-0.055328369140625,-0.3098907470703125,-0.9656219482421875,140224.8533015,0.421027392530006,-0.2081556002777923,-0.4776842805086787
2017-11-24 14:46:59.973 -0800,350,C4D50155-580C-4885-BACB-A13DEF47355A,1511563618.985543,49.27910043093293,-122.9162771830248,347.2701,0.5249262,227.7884617257046,3,16,-9999,140224.9154355,-0.014556884765625,-0.3502044677734375,-0.8639373779296875,140224.8864135,-0.002193379473789261,-0.09574197276889365,-0.5213947434801492
2017-11-24 14:47:00.007 -0800,351,C4D50155-580C-4885-BACB-A13DEF47355A,1511563618.985543,49.27910043093293,-122.9162771830248,347.2701,0.5249262,227.7884617257046,3,16,-9999,140224.9485165,0.0341796875,-0.2009735107421875,-0.8372955322265625,140224.9194335,-0.2879505644392915,0.1198606248650873,-0.2507051913300973
2017-11-24 14:47:00.039 -0800,352,C4D50155-580C-4885-BACB-A13DEF47355A,1511563618.985543,49.27910043093293,-122.9162771830248,347.2701,0.5249262,227.7884617257046,3,16,-9999,140224.9815665,0.1053466796875,-0.1868438720703125,-0.7289581298828125,140224.9525145,-0.04886181546801081,-0.2369281263788994,-0.4088016189137793
2017-11-24 14:47:00.073 -0800,353,C4D50155-580C-4885-BACB-A13DEF47355A,1511563618.985543,49.27910043093293,-122.9162771830248,347.2701,0.5249262,227.7884617257046,3,16,-9999,140225.0146475,0.057220458984375,-0.2535247802734375,-0.5708465576171875,140224.9855645,0.6695474601856933,-0.5617118065906409,-0.6813298174804219
2017-11-24 14:47:00.105 -0800,354,C4D50155-580C-4885-BACB-A13DEF47355A,1511563618.985543,49.27910043093293,-122.9162771830248,347.2701,0.5249262,227.7884617257046,3,16,-9999,140225.0476985,0.067169189453125,-0.350616455078125,-0.49591064453125,140225.0186455,1.318919078269055,-0.5162644299562207,-0.8127930362666574
2017-11-24 14:47:00.139 -0800,355,C4D50155-580C-4885-BACB-A13DEF47355A,1511563618.985543,49.27910043093293,-122.9162771830248,347.2701,0.5249262,227.7884617257046,3,16,-9999,140225.0807795,0.1015472412109375,-0.4384765625,-0.56939697265625,140225.0516965,1.083865284665354,-0.183810845805051,-0.7046660328483503
2017-11-24 14:47:00.172 -0800,356,C4D50155-580C-4885-BACB-A13DEF47355A,1511563619.985523,49.2790917860078,-122.9162964001549,347.2456,0.4194873,224.8737467992934,3,16,-9999,140225.1137995,0.0547027587890625,-0.4441375732421875,-0.6195831298828125,140225.0847775,0.5283200275787914,-0.3455012092797948,-0.3250132446977063
2017-11-24 14:47:00.206 -0800,357,C4D50155-580C-4885-BACB-A13DEF47355A,1511563619.985523,49.2790917860078,-122.9162964001549,347.2456,0.4194873,224.8737467992934,3,16,-9999,140225.1469115,-0.0090179443359375,-0.4381103515625,-0.6287384033203125,140225.1178275,0.1535845000648697,-0.584803810086609,-0.1027969528126226
2017-11-24 14:47:00.238 -0800,358,C4D50155-580C-4885-BACB-A13DEF47355A,1511563619.985523,49.2790917860078,-122.9162964001549,347.2456,0.4194873,224.8737467992934,3,16,-9999,140225.1799315,-0.0542144775390625,-0.5164642333984375,-0.7584686279296875,140225.1509085,0.2546868834758748,-0.3356445837693026,-0.1311692058018907
2017-11-24 14:47:00.272 -0800,359,C4D50155-580C-4885-BACB-A13DEF47355A,1511563619.985523,49.2790917860078,-122.9162964001549,347.2456,0.4194873,224.8737467992934,3,16,-9999,140225.2130425,-0.039276123046875,-0.558990478515625,-0.986572265625,140225.1839595,0.2461924648629581,0.1037090854859747,-0.1781244642455138
2017-11-24 14:47:00.304 -0800,360,C4D50155-580C-4885-BACB-A13DEF47355A,1511563619.985523,49.2790917860078,-122.9162964001549,347.2456,0.4194873,224.8737467992934,3,16,-9999,140225.2460625,0.0601806640625,-0.6137542724609375,-1.1920166015625,140225.2170405,0.1696729225261474,0.160284214419182,-0.2889444561581091
2017-11-24 14:47:00.340 -0800,361,C4D50155-580C-4885-BACB-A13DEF47355A,1511563619.985523,49.2790917860078,-122.9162964001549,347.2456,0.4194873,224.8737467992934,3,16,-9999,140225.2791435,0.1082000732421875,-0.739227294921875,-1.339645385742188,140225.2500905,0.2127863047812221,-0.01909806080917623,-0.3055966698221566
2017-11-24 14:47:00.370 -0800,362,C4D50155-580C-4885-BACB-A13DEF47355A,1511563619.985523,49.2790917860078,-122.9162964001549,347.2456,0.4194873,224.8737467992934,3,16,-9999,140225.3121945,0.2722015380859375,-0.5089111328125,-1.553375244140625,140225.2831725,-0.6738519274555884,0.5169691023806556,0.1174784272700114
2017-11-24 14:47:00.405 -0800,363,C4D50155-580C-4885-BACB-A13DEF47355A,1511563619.985523,49.2790917860078,-122.9162964001549,347.2456,0.4194873,224.8737467992934,3,16,-9999,140225.3452755,0.4418792724609375,-0.0214996337890625,-1.5074462890625,140225.3161925,-1.463478125399647,0.6157750419836854,0.479607615447934
2017-11-24 14:47:00.437 -0800,364,C4D50155-580C-4885-BACB-A13DEF47355A,1511563619.985523,49.2790917860078,-122.9162964001549,347.2456,0.4194873,224.8737467992934,3,16,-9999,140225.3783255,0.36572265625,-0.2238006591796875,-0.80792236328125,140225.3493035,-0.1728258389406922,-1.076090718495085,-0.2982575304901162
2017-11-24 14:47:00.471 -0800,365,C4D50155-580C-4885-BACB-A13DEF47355A,1511563619.985523,49.2790917860078,-122.9162964001549,347.2456,0.4194873,224.8737467992934,3,16,-9999,140225.4114065,0.3369293212890625,-0.601806640625,-0.7045440673828125,140225.3823235,0.9525863566265517,-0.3712433243765008,-0.7543393135005082
2017-11-24 14:47:00.503 -0800,366,C4D50155-580C-4885-BACB-A13DEF47355A,1511563619.985523,49.2790917860078,-122.9162964001549,347.2456,0.4194873,224.8737467992934,3,16,-9999,140225.4444575,0.3437652587890625,-0.464019775390625,-0.8607025146484375,140225.4154355,0.3875804860835919,0.912395793667839,0.1827178844936825
2017-11-24 14:47:00.536 -0800,367,C4D50155-580C-4885-BACB-A13DEF47355A,1511563619.985523,49.2790917860078,-122.9162964001549,347.2456,0.4194873,224.8737467992934,3,16,-9999,140225.4775385,0.2328948974609375,-0.3148956298828125,-0.6962890625,140225.4484555,-0.8587099282012586,0.09448203125717716,0.5129248259492613
2017-11-24 14:47:00.569 -0800,368,C4D50155-580C-4885-BACB-A13DEF47355A,1511563619.985523,49.2790917860078,-122.9162964001549,347.2456,0.4194873,224.8737467992934,3,16,-9999,140225.5105895,0.1183929443359375,-0.34307861328125,-0.4507293701171875,140225.4815365,-0.9246431388888953,-0.5682088543859982,0.3186743886710997
2017-11-24 14:47:00.603 -0800,369,C4D50155-580C-4885-BACB-A13DEF47355A,1511563619.985523,49.2790917860078,-122.9162964001549,347.2456,0.4194873,224.8737467992934,3,16,-9999,140225.5436705,0.0325775146484375,-0.3636322021484375,-0.3647918701171875,140225.5145865,-0.1689064647644226,-0.3533332997296089,0.2512697814811942
2017-11-24 14:47:00.635 -0800,370,C4D50155-580C-4885-BACB-A13DEF47355A,1511563619.985523,49.2790917860078,-122.9162964001549,347.2456,0.4194873,224.8737467992934,3,16,-9999,140225.5767205,0.0050048828125,-0.41375732421875,-0.4201812744140625,140225.5476675,0.1472637535336756,0.129868251609387,0.2008492178271599
2017-11-24 14:47:00.669 -0800,371,C4D50155-580C-4885-BACB-A13DEF47355A,1511563619.985523,49.2790917860078,-122.9162964001549,347.2456,0.4194873,224.8737467992934,3,16,-9999,140225.6098015,0.0576324462890625,-0.4483184814453125,-0.57122802734375,140225.5807185,-0.162670406755893,0.4096152146267985,0.1936688028960883
