loggingTime(txt),loggingSample(N),identifierForVendor(txt),locationTimestamp_since1970(s),locationLatitude(WGS84),locationLongitude(WGS84),locationAltitude(m),locationSpeed(m/s),locationCourse(°),locationVerticalAccuracy(m),locationHorizontalAccuracy(m),locationFloor(Z),accelerometerTimestamp_sinceReboot(s),accelerometerAccelerationX(G),accelerometerAccelerationY(G),accelerometerAccelerationZ(G),gyroTimestamp_sinceReboot(s),gyroRotationX(rad/s),gyroRotationY(rad/s),gyroRotationZ(rad/s),motionTimestamp_sinceReboot(s),motionYaw(rad),motionRoll(rad),motionPitch(rad),motionRotationRateX(rad/s),motionRotationRateY(rad/s),motionRotationRateZ(rad/s),motionUserAccelerationX(G),motionUserAccelerationY(G),motionUserAccelerationZ(G),motionAttitudeReferenceFrame(txt),motionQuaternionX(R),motionQuaternionY(R),motionQuaternionZ(R),motionQuaternionW(R),motionGravityX(G),motionGravityY(G),motionGravityZ(G),motionMagneticFieldX(µT),motionMagneticFieldY(µT),motionMagneticFieldZ(µT),motionMagneticFieldCalibrationAccuracy(Z)
2017-11-27 14:36:02.463 -0800,1,C4D50155-580C-4885-BACB-A13DEF47355A,1511822160.671754,49.27720040328072,-122.9074621092278,343.0549,-1,-1,10,65,-9999,225873.4840034167,-0.436370849609375,-0.1803131103515625,-0.9664306640625,225873.4508924167,-0.3011217602424964,0.3094454702295391,-0.01332699072697452,225873.4639534167,1.791854766519646,-0.4798694657287444,0.1722249577529947,-0.2366474866867065,0.2083868831396103,-0.05104847997426987,0.0005608797073364258,-0.02164885401725769,-0.05415827035903931,XArbitraryCorrectedZVertical,0.2371015250682831,-0.08267166465520859,0.7427986860275269,0.6203916668891907,-0.4548150300979614,-0.1713748127222061,-0.8738965392112732,-29.86276054382324,-23.7849235534668,-47.015869140625,2
2017-11-27 14:36:02.494 -0800,2,C4D50155-580C-4885-BACB-A13DEF47355A,1511822160.671754,49.27720040328072,-122.9074621092278,343.0549,-1,-1,10,65,-9999,225873.5140634167,-0.429901123046875,-0.1805419921875,-0.941162109375,225873.4859874167,-0.09730498201266116,0.08627603299031601,-0.07603644491507035,225873.4989874167,1.787709874040589,-0.476676937032592,0.1694148236567651,-0.01725957356393337,0.11243586987257,-0.05679422616958618,0.01687845587730408,-0.01478978991508484,-0.06401973962783813,XArbitraryCorrectedZVertical,0.2349153310060501,-0.08324810862541199,0.7421867251396179,0.6218769550323486,-0.4522422552108765,-0.1686055809259415,-0.8757690787315369,-29.50651550292969,-23.75906562805176,-47.658935546875,2
2017-11-27 14:36:02.523 -0800,3,C4D50155-580C-4885-BACB-A13DEF47355A,1511822160.671754,49.27720040328072,-122.9074621092278,343.0549,-1,-1,10,65,-9999,225873.5441234167,-0.4221343994140625,-0.1778717041015625,-0.8725738525390625,225873.5210524167,0.162872008050412,0.001815210598998009,-0.03527197074144546,225873.5340834167,1.788805861220125,-0.475677836597831,0.1739428852920422,0.1970344483852386,0.006881541572511196,-0.02224406786262989,0.02622333168983459,0.005617126822471619,-0.02247756719589233,XArbitraryCorrectedZVertical,0.2359264194965363,-0.08107016980648041,0.7421647906303406,0.6218081116676331,-0.4510127305984497,-0.1730670779943466,-0.8755326867103577,-29.42414093017578,-23.72011184692383,-47.541748046875,2
2017-11-27 14:36:02.554 -0800,4,C4D50155-580C-4885-BACB-A13DEF47355A,1511822160.671754,49.27720040328072,-122.9074621092278,343.0549,-1,-1,10,65,-9999,225873.5741834167,-0.4312744140625,-0.1928253173828125,-0.8387603759765625,225873.5561474167,0.1331697724127583,0.05589841970021817,0.0259935175036094,225873.5691474167,1.792056137341239,-0.4748734406833737,0.1788269990132204,0.1125953644514084,0.02180317044258118,0.04535771161317825,0.02527958154678345,-0.008770108222961426,0.02878892421722412,XArbitraryCorrectedZVertical,0.2371962368488312,-0.07855874300003052,0.7427484393119812,0.6209503412246704,-0.4499164223670959,-0.1778753995895386,-0.8751329183578491,-29.28122520446777,-23.87960815429688,-47.311767578125,2
2017-11-27 14:36:02.584 -0800,5,C4D50155-580C-4885-BACB-A13DEF47355A,1511822160.671754,49.27720040328072,-122.9074621092278,343.0549,-1,-1,10,65,-9999,225873.6042434167,-0.4541473388671875,-0.1872406005859375,-0.824249267578125,225873.5911814167,-0.02546195055002958,0.01801229003275093,0.05274869907898146,225873.5691474167,1.792056137341239,-0.4748734406833737,0.1788269990132204,0.1125953644514084,0.02180317044258118,0.04535771161317825,0.02527958154678345,-0.008770108222961426,0.02878892421722412,XArbitraryCorrectedZVertical,0.2371962368488312,-0.07855874300003052,0.7427484393119812,0.6209503412246704,-0.4499164223670959,-0.1778753995895386,-0.8751329183578491,-29.28122520446777,-23.87960815429688,-47.311767578125,2
2017-11-27 14:36:02.614 -0800,6,C4D50155-580C-4885-BACB-A13DEF47355A,1511822160.671754,49.27720040328072,-122.9074621092278,343.0549,-1,-1,10,65,-9999,225873.6343024167,-0.4645538330078125,-0.1822357177734375,-0.8449554443359375,225873.6262764167,-0.1365634385898462,0.06287723333677081,0.016770990648665,225873.6042434167,1.794253304810264,-0.4750369597449312,0.1787429225664194,-0.04417861998081207,0.04125183075666428,0.04676180332899094,-0.003379076719284058,-0.009661555290222168,0.0505182147026062,XArbitraryCorrectedZVertical,0.2373184859752655,-0.07838121801614761,0.7434197068214417,0.6201222538948059,-0.4500663578510284,-0.1777926683425903,-0.8750726580619812,-29.47134971618652,-24.13898277282715,-47.17449951171875,2
2017-11-27 14:36:02.660 -0800,7,C4D50155-580C-4885-BACB-A13DEF47355A,1511822160.671754,49.27720040328072,-122.9074621092278,343.0549,-1,-1,10,65,-9999,225873.6643624167,-0.47357177734375,-0.16845703125,-0.8648223876953125,225873.6613104167,-0.1431273317285645,0.03963183176201418,-0.03658224599776445,225873.6392774167,1.793520478432196,-0.4729085691360836,0.1749661551983268,-0.1278965026140213,0.0478518083691597,0.01864316128194332,-0.01546826958656311,-0.008237183094024658,0.0321229100227356,XArbitraryCorrectedZVertical,0.2353876978158951,-0.07926124334335327,0.7438464164733887,0.6202346086502075,-0.4485057294368744,-0.1740748137235641,-0.8766205906867981,-29.45590591430664,-23.84915733337402,-47.40884399414062,2
2017-11-27 14:36:02.674 -0800,8,C4D50155-580C-4885-BACB-A13DEF47355A,1511822160.671754,49.27720040328072,-122.9074621092278,343.0549,-1,-1,10,65,-9999,225873.6944224167,-0.466033935546875,-0.16912841796875,-0.87811279296875,225873.6613104167,-0.1431273317285645,0.03963183176201418,-0.03658224599776445,225873.6743724167,1.790915369759329,-0.4711809793542062,0.1712037856297912,-0.1278088688850403,0.02884741127490997,-0.04627646133303642,-0.02477625012397766,0.001804828643798828,0.007549405097961426,XArbitraryCorrectedZVertical,0.2335326373577118,-0.08047740906476974,0.7436378598213196,0.6210283041000366,-0.4472849071025848,-0.1703686565160751,-0.8779717683792114,-29.35651588439941,-23.39084434509277,-47.31787109375,2
2017-11-27 14:36:02.704 -0800,9,C4D50155-580C-4885-BACB-A13DEF47355A,1511822160.671754,49.27720040328072,-122.9074621092278,343.0549,-1,-1,10,65,-9999,225873.7244824167,-0.45623779296875,-0.1719512939453125,-0.8830108642578125,225873.6964064167,-0.1002789340019526,0.01621785209025554,-0.05179954846647721,225873.7094064167,1.787738391495312,-0.4702266333358426,0.1687931416210751,-0.06305123120546341,-0.01374687999486923,-0.04092850908637047,-0.01480931043624878,-0.003409206867218018,-0.00202101469039917,XArbitraryCorrectedZVertical,0.2323370277881622,-0.0814768373966217,0.7430146932601929,0.6220914125442505,-0.4466317296028137,-0.1679927706718445,-0.8787620663642883,-29.12926292419434,-23.70658683776855,-47.72427368164062,2
2017-11-27 14:36:02.737 -0800,10,C4D50155-580C-4885-BACB-A13DEF47355A,1511822160.671754,49.27720040328072,-122.9074621092278,343.0549,-1,-1,10,65,-9999,225873.7545424167,-0.456573486328125,-0.1719970703125,-0.8820953369140625,225873.7314704167,-0.05402914693109155,0.007574829088512377,-0.01799657738231946,225873.7445324167,1.786398554148582,-0.470361669041091,0.1677468501071337,-0.03585385158658028,0.01586786657571793,-0.005255272146314383,-0.007286995649337769,-0.009903371334075928,-0.001101136207580566,XArbitraryCorrectedZVertical,0.232022687792778,-0.08207600563764572,0.7426916360855103,0.6225157976150513,-0.4468298256397247,-0.1669612526893616,-0.8788580298423767,-29.01004981994629,-23.64655303955078,-47.91818237304688,2
2017-11-27 14:36:02.764 -0800,11,C4D50155-580C-4885-BACB-A13DEF47355A,1511822160.671754,49.27720040328072,-122.9074621092278,343.0549,-1,-1,10,65,-9999,225873.7846014167,-0.44976806640625,-0.1689300537109375,-0.880126953125,225873.7665664167,-0.009500560872748674,0.003210973326308538,-0.004421912673967567,225873.7795664167,1.78630921251322,-0.4703206321618938,0.1674934306326923,0.007612393237650394,-0.02032330073416233,-0.0002869162708520889,-0.006647735834121704,-0.002615407109260559,-0.003211796283721924,XArbitraryCorrectedZVertical,0.2319287061691284,-0.08217083662748337,0.7426950931549072,0.6225342750549316,-0.4468129575252533,-0.1667113900184631,-0.8789140582084656,-28.9843921661377,-23.51616096496582,-47.71615600585938,2
2017-11-27 14:36:02.794 -0800,12,C4D50155-580C-4885-BACB-A13DEF47355A,1511822160.671754,49.27720040328072,-122.9074621092278,343.0549,-1,-1,10,65,-9999,225873.8146614167,-0.4460906982421875,-0.1796112060546875,-0.8607330322265625,225873.8016004167,-0.002599245223917337,0.001029045445206618,0.02441532824162844,225873.7795664167,1.78630921251322,-0.4703206321618938,0.1674934306326923,0.007612393237650394,-0.02032330073416233,-0.0002869162708520889,-0.006647735834121704,-0.002615407109260559,-0.003211796283721924,XArbitraryCorrectedZVertical,0.2319287061691284,-0.08217083662748337,0.7426950931549072,0.6225342750549316,-0.4468129575252533,-0.1667113900184631,-0.8789140582084656,-28.9843921661377,-23.51616096496582,-47.71615600585938,2
2017-11-27 14:36:02.824 -0800,13,C4D50155-580C-4885-BACB-A13DEF47355A,1511822160.671754,49.27720040328072,-122.9074621092278,343.0549,-1,-1,10,65,-9999,225873.8447214167,-0.4545745849609375,-0.1682891845703125,-0.8706207275390625,225873.8366954167,-0.03374677838515708,-0.03603816218706126,0.02481373714070429,225873.8146614167,1.787176359552072,-0.4711933204914439,0.1674749574826614,0.003791686147451401,0.006152951158583164,0.03905690088868141,0.00161251425743103,-0.01262810826301575,0.01788496971130371,XArbitraryCorrectedZVertical,0.2322830706834793,-0.08234895020723343,0.7428655624389648,0.6221752762794495,-0.4475811421871185,-0.1666931658983231,-0.8785264492034912,-29.22846603393555,-23.59521675109863,-47.832763671875,2
2017-11-27 14:36:02.854 -0800,14,C4D50155-580C-4885-BACB-A13DEF47355A,1511822160.671754,49.27720040328072,-122.9074621092278,343.0549,-1,-1,10,65,-9999,225873.8747814167,-0.4506378173828125,-0.17138671875,-0.86614990234375,225873.8717604167,-0.05115000347660689,0.001179247730687087,-0.00306955947242533,225873.8496954167,1.7880332827587,-0.47224973478436,0.1664581939090093,-0.02166036330163479,-0.03834152221679688,0.01933322474360466,-0.005714118480682373,-0.00288856029510498,0.00729292631149292,XArbitraryCorrectedZVertical,0.2324101775884628,-0.08296829462051392,0.7431156039237976,0.6217468976974487,-0.4485858082771301,-0.165690541267395,-0.8782035708427429,-29.10969543457031,-23.3782787322998,-47.90057373046875,2
2017-11-27 14:36:02.904 -0800,15,C4D50155-580C-4885-BACB-A13DEF47355A,1511822160.671754,49.27720040328072,-122.9074621092278,343.0549,-1,-1,10,65,-9999,225873.9048414167,-0.44244384765625,-0.1743621826171875,-0.870269775390625,225873.8717604167,-0.05115000347660689,0.001179247730687087,-0.00306955947242533,225873.8847914167,1.787681481174896,-0.4727081994055942,0.1654156246038218,-0.0435326024889946,-0.007485564332455397,-0.0001387959346175194,-0.0003197789192199707,-0.009028494358062744,0.01204699277877808,XArbitraryCorrectedZVertical,0.2322574555873871,-0.08355189114809036,0.743061900138855,0.6217900514602661,-0.4490667879581451,-0.1646623015403748,-0.8781511187553406,-29.07884407043457,-23.69024085998535,-47.71795654296875,2
2017-11-27 14:36:02.914 -0800,16,C4D50155-580C-4885-BACB-A13DEF47355A,1511822160.671754,49.27720040328072,-122.9074621092278,343.0549,-1,-1,10,65,-9999,225873.9349014167,-0.4395599365234375,-0.1644287109375,-0.8722991943359375,225873.9068554167,-0.07912944020508837,-0.003020024676149856,0.008101868668239058,225873.9198554167,1.787023459773682,-0.4729145367040127,0.1634262049588102,-0.05776554346084595,-0.008522428572177887,0.0176782738417387,0.007440805435180664,-0.01039600372314453,0.01128298044204712,XArbitraryCorrectedZVertical,0.2317175716161728,-0.08445572853088379,0.7430408000946045,0.6218945980072021,-0.4493963420391083,-0.1626997143030167,-0.8783484101295471,-29.20941162109375,-23.33805274963379,-47.93020629882812,2
2017-11-27 14:36:02.945 -0800,17,C4D50155-580C-4885-BACB-A13DEF47355A,1511822160.671754,49.27720040328072,-122.9074621092278,343.0549,-1,-1,10,65,-9999,225873.9649604167,-0.4362030029296875,-0.1616668701171875,-0.8745880126953125,225873.9418894167,-0.08038991434902287,-0.01257784351233523,0.01550013017647918,225873.9549514167,1.786729466950861,-0.4734169599537188,0.161167386624623,-0.0622313991189003,-0.01913405954837799,0.02501474879682064,0.01216834783554077,-0.003515630960464478,0.004607081413269043,XArbitraryCorrectedZVertical,0.2312226444482803,-0.08551245927810669,0.7431260347366333,0.6218327879905701,-0.4500040411949158,-0.160470575094223,-0.878447413444519,-29.18766593933105,-22.93129539489746,-47.77474975585938,2
2017-11-27 14:36:02.979 -0800,18,C4D50155-580C-4885-BACB-A13DEF47355A,1511822160.671754,49.27720040328072,-122.9074621092278,343.0549,-1,-1,10,65,-9999,225873.9950204167,-0.429534912109375,-0.167510986328125,-0.882965087890625,225873.9769844167,-0.06487007678047711,-0.01795396680487819,0.03917137120953949,225873.9899854167,1.787172215124264,-0.4741909529695265,0.1589523464039221,-0.05207442492246628,-0.01709771156311035,0.05285597965121269,0.01690033078193665,-0.001002639532089233,-0.005269289016723633,XArbitraryCorrectedZVertical,0.2308730483055115,-0.0865514799952507,0.7434037327766418,0.6214870810508728,-0.4508450329303741,-0.1582838445901871,-0.8784129619598389,-29.61075210571289,-22.99870872497559,-48.00149536132812,2
2017-11-27 14:36:03.005 -0800,19,C4D50155-580C-4885-BACB-A13DEF47355A,1511822160.671754,49.27720040328072,-122.9074621092278,343.0549,-1,-1,10,65,-9999,225874.0250804167,-0.4260406494140625,-0.2313232421875,-0.9048309326171875,225874.0070444167,-0.03316461137086576,0.004137753385656112,0.1163838680619888,225873.9899854167,1.787172215124264,-0.4741909529695265,0.1589523464039221,-0.05207442492246628,-0.01709771156311035,0.05285597965121269,0.01690033078193665,-0.001002639532089233,-0.005269289016723633,XArbitraryCorrectedZVertical,0.2308730483055115,-0.0865514799952507,0.7434037327766418,0.6214870810508728,-0.4508450329303741,-0.1582838445901871,-0.8784129619598389,-29.61075210571289,-22.99870872497559,-48.00149536132812,2
2017-11-27 14:36:03.035 -0800,20,C4D50155-580C-4885-BACB-A13DEF47355A,1511822160.671754,49.27720040328072,-122.9074621092278,343.0549,-1,-1,10,65,-9999,225874.0551404167,-0.4853973388671875,-0.2816925048828125,-0.9025421142578125,225874.0391184167,0.1233371153520767,-0.000821318880180437,0.3543016251019617,225874.0250804167,1.790641890552954,-0.4749060097951914,0.1563912100743243,0.01130726281553507,-0.004725432954728603,0.1997601538896561,0.02671492099761963,-0.07248649001121521,-0.02612346410751343,XArbitraryCorrectedZVertical,0.2305317670106888,-0.08735606819391251,0.7446624040603638,0.619992733001709,-0.4516569375991821,-0.1557544767856598,-0.8784480690956116,-29.40997886657715,-23.31558418273926,-48.02395629882812,2
2017-11-27 14:36:03.069 -0800,21,C4D50155-580C-4885-BACB-A13DEF47355A,1511822160.671754,49.27720040328072,-122.9074621092278,343.0549,-1,-1,10,65,-9999,225874.0852004167,-0.5354461669921875,-0.212921142578125,-0.8834991455078125,225874.0741524167,0.2402970251578497,-0.06254087609109381,0.3031385721360134,225874.0601144167,1.803963625508596,-0.4777394590350325,0.1549838761428788,0.2138224840164185,-0.05855711922049522,0.4171407520771027,-0.02883365750312805,-0.1279539465904236,-0.02455824613571167,XArbitraryCorrectedZVertical,0.2317568808794022,-0.08723311871290207,0.7485916614532471,0.6147997379302979,-0.4542443454265594,-0.1543641686439514,-0.8773582577705383,-29.83563041687012,-22.71145629882812,-48.0228271484375,2
2017-11-27 14:36:03.095 -0800,22,C4D50155-580C-4885-BACB-A13DEF47355A,1511822160.671754,49.27720040328072,-122.9074621092278,343.0549,-1,-1,10,65,-9999,225874.1152594167,-0.519775390625,-0.2356719970703125,-0.8424530029296875,225874.1092474167,0.2601413037044661,-0.08331752733534699,-0.01240926541533322,225874.0952094167,1.817265165178698,-0.4822385581613954,0.1581806380261061,0.2691501677036285,-0.06887693703174591,0.1458772867918015,-0.08055773377418518,-0.04805983603000641,0.001312911510467529,XArbitraryCorrectedZVertical,0.2349527329206467,-0.08582285046577454,0.7518091797828674,0.6098389029502869,-0.4579554796218872,-0.1575218141078949,-0.87486332654953,-30.16709899902344,-23.01419258117676,-47.38052368164062,2
2017-11-27 14:36:03.140 -0800,23,C4D50155-580C-4885-BACB-A13DEF47355A,1511822160.671754,49.27720040328072,-122.9074621092278,343.0549,-1,-1,10,65,-9999,225874.1453194167,-0.4777984619140625,-0.260345458984375,-0.8133544921875,225874.1442824167,-0.008212656169586354,0.006578540524713734,-0.125630895998962,225874.1302744167,1.821311436625573,-0.485921396903268,0.1660407469087943,0.1720708310604095,-0.08633978664875031,-0.0814235657453537,-0.04616299271583557,-0.0874982476234436,0.03949809074401855,XArbitraryCorrectedZVertical,0.2387835681438446,-0.08341662585735321,0.7517848610877991,0.6087135076522827,-0.4605813920497894,-0.1652788519859314,-0.8720481395721436,-30.37745094299316,-23.37854194641113,-47.13137817382812,2
2017-11-27 14:36:03.155 -0800,24,C4D50155-580C-4885-BACB-A13DEF47355A,1511822160.671754,49.27720040328072,-122.9074621092278,343.0549,-1,-1,10,65,-9999,225874.1753794167,-0.470550537109375,-0.202880859375,-0.8259429931640625,225874.1442824167,-0.008212656169586354,0.006578540524713734,-0.125630895998962,225874.1653694167,1.817518814442946,-0.4858058489692772,0.1682220484616835,-0.1013212874531746,0.00880856066942215,-0.1532484889030457,-0.009033948183059692,-0.06075018644332886,0.05238336324691772,XArbitraryCorrectedZVertical,0.239212840795517,-0.0829882025718689,0.7504125833511353,0.6102944612503052,-0.4603111445903778,-0.1674297600984573,-0.8717803359031677,-30.60735321044922,-23.6106014251709,-47.12655639648438,2
2017-11-27 14:36:03.185 -0800,25,C4D50155-580C-4885-BACB-A13DEF47355A,1511822160.671754,49.27720040328072,-122.9074621092278,343.0549,-1,-1,10,65,-9999,225874.2054394167,-0.4631500244140625,-0.1622467041015625,-0.850250244140625,225874.1793774167,-0.2237625232139837,-0.003379551423310553,-0.2381174941217288,225874.2004034167,1.80673698018444,-0.4841383277150902,0.1654662113617873,-0.2885607481002808,0.0189824104309082,-0.2896243631839752,-0.01073288917541504,-0.01045872271060944,0.02947676181793213,XArbitraryCorrectedZVertical,0.2373353689908981,-0.08482843637466431,0.747602105140686,0.6142110824584961,-0.4590699672698975,-0.1647121906280518,-0.8729521036148071,-30.25734519958496,-23.53394317626953,-47.30023193359375,2
2017-11-27 14:36:03.228 -0800,26,C4D50155-580C-4885-BACB-A13DEF47355A,1511822160.671754,49.27720040328072,-122.9074621092278,343.0549,-1,-1,10,65,-9999,225874.2354994167,-0.4374847412109375,-0.1444549560546875,-0.8932342529296875,225874.2144424167,-0.3484187022539766,0.07344332496166019,-0.3370161117306934,225874.2004034167,1.80673698018444,-0.4841383277150902,0.1654662113617873,-0.2885607481002808,0.0189824104309082,-0.2896243631839752,-0.01073288917541504,-0.01045872271060944,0.02947676181793213,XArbitraryCorrectedZVertical,0.2373353689908981,-0.08482843637466431,0.747602105140686,0.6142110824584961,-0.4590699672698975,-0.1647121906280518,-0.8729521036148071,-30.25734519958496,-23.53394317626953,-47.30023193359375,2
2017-11-27 14:36:03.245 -0800,27,C4D50155-580C-4885-BACB-A13DEF47355A,1511822160.671754,49.27720040328072,-122.9074621092278,343.0549,-1,-1,10,65,-9999,225874.2655594167,-0.423004150390625,-0.15673828125,-0.9044647216796875,225874.2495374167,-0.2920920462504737,0.007459780529420954,-0.2882760027244992,225874.2354994167,1.791120139519564,-0.4800290713577874,0.1606990783301161,-0.3304500579833984,0.02232197299599648,-0.329740434885025,0.01751279830932617,0.01582801342010498,-0.01710546016693115,XArbitraryCorrectedZVertical,0.2337323725223541,-0.0872349813580513,0.7437688708305359,0.6198834180831909,-0.4558367729187012,-0.1600083112716675,-0.8755185008049011,-30.08186149597168,-23.35274314880371,-47.763671875,2
2017-11-27 14:36:03.275 -0800,28,C4D50155-580C-4885-BACB-A13DEF47355A,1511822160.671754,49.27720040328072,-122.9074621092278,343.0549,-1,-1,10,65,-9999,225874.2956184167,-0.456573486328125,-0.1515350341796875,-0.9016571044921875,225874.2845714167,-0.2222202866267188,-0.1116082875952587,-0.2372865878616241,225874.2705334167,1.777791201176405,-0.4782440169136811,0.156458135483108,-0.2610796391963959,-0.04057833552360535,-0.2371480613946915,0.031943678855896,-0.0001547634601593018,-0.0266692042350769,XArbitraryCorrectedZVertical,0.2312219738960266,-0.0898527055978775,0.7402716875076294,0.6246193051338196,-0.454581618309021,-0.1558205932378769,-0.8769257664680481,-29.66269683837891,-23.11275100708008,-47.75225830078125,2
2017-11-27 14:36:03.306 -0800,29,C4D50155-580C-4885-BACB-A13DEF47355A,1511822160.671754,49.27720040328072,-122.9074621092278,343.0549,-1,-1,10,65,-9999,225874.3256784167,-0.4671783447265625,-0.1185302734375,-0.885589599609375,225874.3196664167,-0.2337765415448997,0.02338042384202365,-0.3754316778228684,225874.3056594167,1.766741204333079,-0.4802492673348279,0.1539343258693184,-0.1710211783647537,-0.1022385209798813,-0.2771070599555969,-0.01245957612991333,0.01306833326816559,-0.0176084041595459,XArbitraryCorrectedZVertical,0.2307034581899643,-0.09271872043609619,0.7368412017822266,0.6284367442131042,-0.4565193355083466,-0.1533271074295044,-0.8763583302497864,-29.6829662322998,-22.91959190368652,-47.85055541992188,2
2017-11-27 14:36:03.335 -0800,30,C4D50155-580C-4885-BACB-A13DEF47355A,1511822160.671754,49.27720040328072,-122.9074621092278,343.0549,-1,-1,10,65,-9999,225874.3557384167,-0.4461669921875,-0.1539154052734375,-0.8709259033203125,225874.3547314167,-0.2731905267297454,0.0914348423379085,-0.41534607097654,225874.3406934167,1.751612611640453,-0.4774479535930959,0.15300907320918,-0.2612196803092957,0.07747741788625717,-0.4187269508838654,-0.003376513719558716,0.02851137518882751,-0.003587961196899414,XArbitraryCorrectedZVertical,0.2286891639232635,-0.09392238408327103,0.7324845790863037,0.6340618133544922,-0.4541277587413788,-0.1524127423763275,-0.8777596950531006,-29.48596954345703,-22.97869682312012,-48.17147827148438,2
2017-11-27 14:36:03.383 -0800,31,C4D50155-580C-4885-BACB-A13DEF47355A,1511822160.671754,49.27720040328072,-122.9074621092278,343.0549,-1,-1,10,65,-9999,225874.3857984167,-0.4353179931640625,-0.1544342041015625,-0.8631439208984375,225874.3547314167,-0.2731905267297454,0.0914348423379085,-0.41534607097654,225874.3757884167,1.734781734097816,-0.4724104310064589,0.1516324354945537,-0.2259014248847961,0.03383731096982956,-0.380956619977951,0.01313492655754089,-0.002817586064338684,0.01469862461090088,XArbitraryCorrectedZVertical,0.2256358116865158,-0.09474712610244751,0.7278376817703247,0.6403529047966003,-0.4497956931591034,-0.1510520428419113,-0.8802229166030884,-28.86278533935547,-22.91839790344238,-48.30953979492188,2
2017-11-27 14:36:03.396 -0800,32,C4D50155-580C-4885-BACB-A13DEF47355A,1511822160.671754,49.27720040328072,-122.9074621092278,343.0549,-1,-1,10,65,-9999,225874.4158584167,-0.4331207275390625,-0.0927886962890625,-0.763916015625,225874.3898264167,-0.2428928082723499,-0.0561884379429278,-0.36728400278388,225874.4108224167,1.719752077062632,-0.4769576647322033,0.1511471179054572,-0.1916257441043854,-0.5232891440391541,-0.3752870261669159,0.0512847900390625,0.0314926952123642,0.04067802429199219,XArbitraryCorrectedZVertical,0.2264110594987869,-0.09808947890996933,0.7225427031517029,0.6455513834953308,-0.453826904296875,-0.150572270154953,-0.8782329559326172,-28.88713645935059,-22.93840408325195,-48.40084838867188,2
2017-11-27 14:36:03.426 -0800,33,C4D50155-580C-4885-BACB-A13DEF47355A,1511822160.671754,49.27720040328072,-122.9074621092278,343.0549,-1,-1,10,65,-9999,225874.4459174167,-0.441436767578125,-0.1912994384765625,-0.6560211181640625,225874.4248604167,-0.4078924157176262,-0.1386015557720839,-0.354579659119766,225874.4108224167,1.719752077062632,-0.4769576647322033,0.1511471179054572,-0.1916257441043854,-0.5232891440391541,-0.3752870261669159,0.0512847900390625,0.0314926952123642,0.04067802429199219,XArbitraryCorrectedZVertical,0.2264110594987869,-0.09808947890996933,0.7225427031517029,0.6455513834953308,-0.453826904296875,-0.150572270154953,-0.8782329559326172,-28.88713645935059,-22.93840408325195,-48.40084838867188,2
2017-11-27 14:36:03.461 -0800,34,C4D50155-580C-4885-BACB-A13DEF47355A,1511822160.671754,49.27720040328072,-122.9074621092278,343.0549,-1,-1,10,65,-9999,225874.4759774167,-0.30963134765625,-0.060638427734375,-0.8140716552734375,225874.4599564167,-1.046051592979537,0.2772310747356136,-0.06864990131562657,225874.4459174167,1.702844952147547,-0.4762220200327349,0.142589219087457,-0.6430521607398987,0.3560355007648468,-0.2389964163303375,0.007633805274963379,-0.04368448257446289,0.2214616537094116,XArbitraryCorrectedZVertical,0.2226332724094391,-0.1029291972517967,0.7180358171463013,0.6511161327362061,-0.4537550508975983,-0.1421065330505371,-0.8796800374984741,-28.89935302734375,-22.69625091552734,-48.45547485351562,2
2017-11-27 14:36:03.485 -0800,35,C4D50155-580C-4885-BACB-A13DEF47355A,1511822160.671754,49.27720040328072,-122.9074621092278,343.0549,-1,-1,10,65,-9999,225874.5060374167,-0.2340240478515625,0.0297393798828125,-1.064788818359375,225874.4949904167,-1.023803811549124,-0.6780258998320696,0.1187626035476476,225874.4809824167,1.684345951356535,-0.4669324127824248,0.1111415047455082,-1.277384519577026,-0.179851770401001,0.02875452674925327,0.1376482844352722,0.04244664311408997,0.08345729112625122,XArbitraryCorrectedZVertical,0.2083686888217926,-0.1134738251566887,0.7161466479301453,0.6561461687088013,-0.4473558962345123,-0.1109128370881081,-0.8874123692512512,-28.2016658782959,-21.68843078613281,-49.60159301757812,2
2017-11-27 14:36:03.515 -0800,36,C4D50155-580C-4885-BACB-A13DEF47355A,1511822160.671754,49.27720040328072,-122.9074621092278,343.0549,-1,-1,10,65,-9999,225874.5360974167,-0.9758758544921875,0.1257171630859375,-0.9936370849609375,225874.5300854167,-0.4083499467929018,-0.4262565093303766,-0.9636137077522429,225874.5160774167,1.671856167891939,-0.4902731406192115,0.078665450181996,-0.6938204765319824,-0.8783645033836365,0.116556242108345,-0.04060155153274536,0.08012548089027405,-0.1731085181236267,XArbitraryCorrectedZVertical,0.2055426687002182,-0.1342789679765701,0.7127571702003479,0.6568002104759216,-0.4693929255008698,-0.07858434319496155,-0.8794427514076233,-29.30091285705566,-19.62241172790527,-50.02716064453125,2
2017-11-27 14:36:03.546 -0800,37,C4D50155-580C-4885-BACB-A13DEF47355A,1511822160.671754,49.27720040328072,-122.9074621092278,343.0549,-1,-1,10,65,-9999,225874.5661574167,-0.62139892578125,-0.183868408203125,-0.9459686279296875,225874.5651504167,0.1205671615022853,-0.1513136226033591,-1.812496305215,225874.5511124167,1.642215014843192,-0.490559235924197,0.0859623989136203,0.2084823846817017,0.3497565686702728,-1.517573118209839,-0.4088121056556702,0.09795679152011871,0.03328943252563477,XArbitraryCorrectedZVertical,0.2060136944055557,-0.1347919702529907,0.7022062540054321,0.6678199172019958,-0.4693617224693298,-0.08585656434297562,-0.8787789940834045,-29.29439353942871,-19.76017951965332,-49.94110107421875,2
2017-11-27 14:36:03.576 -0800,38,C4D50155-580C-4885-BACB-A13DEF47355A,1511822160.671754,49.27720040328072,-122.9074621092278,343.0549,-1,-1,10,65,-9999,225874.5962164167,-0.64031982421875,-0.2182464599609375,-0.8517913818359375,225874.5651504167,0.1205671615022853,-0.1513136226033591,-1.812496305215,225874.5862074167,1.587051078727095,-0.4885993680170592,0.1190218722119677,-0.1079314947128296,-0.1028999984264374,-1.999903440475464,-0.1439194977283478,-0.114718422293663,0.05566507577896118,XArbitraryCorrectedZVertical,0.2126356214284897,-0.1281838566064835,0.6803330183029175,0.6893399953842163,-0.4660505950450897,-0.1187410578131676,-0.8767099976539612,-28.63930892944336,-20.69932556152344,-49.840576171875,2
2017-11-27 14:36:03.622 -0800,39,C4D50155-580C-4885-BACB-A13DEF47355A,1511822160.671754,49.27720040328072,-122.9074621092278,343.0549,-1,-1,10,65,-9999,225874.6262764167,-0.602020263671875,-0.25885009765625,-0.860595703125,225874.6002454167,-0.3052826831296362,-0.1125750150709575,-2.238235628661683,225874.6212414167,1.513064172207065,-0.4837267260828808,0.146886142564765,-0.3252024352550507,-0.3013684451580048,-2.351107597351074,-0.1498539447784424,-0.07672499120235443,-0.005937337875366211,XArbitraryCorrectedZVertical,0.2158167958259583,-0.1247918307781219,0.6518376469612122,0.71599280834198,-0.4600551426410675,-0.1463585197925568,-0.8757002353668213,-26.87602615356445,-22.53900909423828,-50.01055908203125,2
2017-11-27 14:36:03.636 -0800,40,C4D50155-580C-4885-BACB-A13DEF47355A,1511822160.671754,49.27720040328072,-122.9074621092278,343.0549,-1,-1,10,65,-9999,225874.6563364167,-0.5368499755859375,-0.2758331298828125,-0.822479248046875,225874.6352794167,-0.2886893253256795,-0.4857989323501502,-2.427071859443714,225874.6212414167,1.513064172207065,-0.4837267260828808,0.146886142564765,-0.3252024352550507,-0.3013684451580048,-2.351107597351074,-0.1498539447784424,-0.07672499120235443,-0.005937337875366211,XArbitraryCorrectedZVertical,0.2158167958259583,-0.1247918307781219,0.6518376469612122,0.71599280834198,-0.4600551426410675,-0.1463585197925568,-0.8757002353668213,-26.87602615356445,-22.53900909423828,-50.01055908203125,2
2017-11-27 14:36:03.666 -0800,41,C4D50155-580C-4885-BACB-A13DEF47355A,1511822160.671754,49.27720040328072,-122.9074621092278,343.0549,-1,-1,10,65,-9999,225874.6863752917,-0.4821929931640625,-0.2305145263671875,-0.8162841796875,225874.6703532917,-0.4223163624976043,-0.4842913168570563,-2.524190952812287,225874.6563364167,1.431873488098187,-0.4866237516713647,0.1774168830992793,-0.3322181403636932,-0.4868206381797791,-2.481432437896729,-0.07455152273178101,-0.1013444364070892,0.04680895805358887,XArbitraryCorrectedZVertical,0.2224216908216476,-0.1246029883623123,0.6183819174766541,0.7431650757789612,-0.4602842926979065,-0.1764875948429108,-0.8700053691864014,-25.43946838378906,-24.40343856811523,-49.7657470703125,2
2017-11-27 14:36:03.696 -0800,42,C4D50155-580C-4885-BACB-A13DEF47355A,1511822160.671754,49.27720040328072,-122.9074621092278,343.0549,-1,-1,10,65,-9999,225874.7164352917,-0.558563232421875,-0.281005859375,-0.890472412109375,225874.7053872917,-0.6722127518046447,-1.075038503548395,-3.007753895111207,225874.6913802917,1.344242729366292,-0.4901254355497028,0.2055610886457277,-0.5824658274650574,-0.8297644257545471,-2.657047510147095,-0.02265399694442749,-0.02693212032318115,0.04923796653747559,XArbitraryCorrectedZVertical,0.2282053232192993,-0.126854345202446,0.5813815593719482,0.7703983783721924,-0.4608055055141449,-0.2041164636611938,-0.8636606335639954,-23.72160339355469,-26.22075653076172,-49.90460205078125,2
2017-11-27 14:36:03.726 -0800,43,C4D50155-580C-4885-BACB-A13DEF47355A,1511822160.671754,49.27720040328072,-122.9074621092278,343.0549,-1,-1,10,65,-9999,225874.7464952917,-0.507781982421875,-0.270416259765625,-0.847259521484375,225874.7404832917,-0.5280989852083148,-1.0054405168847,-2.93685735109999,225874.7264752917,1.240849807991795,-0.50598149491651,0.2361331364596826,-0.5009571313858032,-1.211375594139099,-3.005295515060425,-0.01746934652328491,-0.04849535226821899,-0.0170169472694397,XArbitraryCorrectedZVertical,0.237349808216095,-0.1359153538942337,0.5349765419960022,0.7991746068000793,-0.4711933434009552,-0.233944833278656,-0.8503841757774353,-22.43697357177734,-27.54311752319336,-49.52859497070312,2
2017-11-27 14:36:03.758 -0800,44,C4D50155-580C-4885-BACB-A13DEF47355A,1511822160.671754,49.27720040328072,-122.9074621092278,343.0549,-1,-1,10,65,-9999,225874.7765542917,-0.51580810546875,-0.176849365234375,-0.9481964111328125,225874.7755472917,-0.4957346537450178,-1.317632771462547,-2.820025539342649,225874.7615092917,1.140077918494637,-0.5181423075329724,0.2704843903175022,-0.5413289070129395,-1.098117232322693,-2.762220859527588,-0.018890380859375,0.03582921624183655,-0.03595328330993652,XArbitraryCorrectedZVertical,0.2467691451311111,-0.1433546841144562,0.4878256022930145,0.8247838616371155,-0.47723388671875,-0.267198234796524,-0.837108850479126,-21.77811241149902,-28.4486141204834,-49.5418701171875,2
2017-11-27 14:36:03.786 -0800,45,C4D50155-580C-4885-BACB-A13DEF47355A,1511822160.671754,49.27720040328072,-122.9074621092278,343.0549,-1,-1,10,65,-9999,225874.8066142917,-0.4515838623046875,-0.3733367919921875,-0.6662139892578125,225874.7755472917,-0.4957346537450178,-1.317632771462547,-2.820025539342649,225874.7966042917,1.041136825872268,-0.536327198344675,0.3031087218680407,-0.7699044346809387,-1.381871342658997,-2.827751874923706,0.03024554252624512,0.04243093729019165,0.04839730262756348,XArbitraryCorrectedZVertical,0.2566269338130951,-0.1548071801662445,0.4394106864929199,0.8466307520866394,-0.4876582622528076,-0.2984886467456818,-0.820354700088501,-20.77162933349609,-29.61106872558594,-48.97506713867188,2
2017-11-27 14:36:03.816 -0800,46,C4D50155-580C-4885-BACB-A13DEF47355A,1511822160.671754,49.27720040328072,-122.9074621092278,343.0549,-1,-1,10,65,-9999,225874.8367052917,-0.5182037353515625,-0.3204803466796875,-0.759490966796875,225874.8106432917,-0.9288189754781395,-1.084484469618797,-2.706226535434692,225874.8316692917,0.9389319556460146,-0.5428878762681673,0.3246216848885177,-0.9099909067153931,-0.9479763507843018,-2.581493616104126,-0.0634579062461853,-0.04460567235946655,0.1017465591430664,XArbitraryCorrectedZVertical,0.2586044371128082,-0.1655285954475403,0.3914918303489685,0.8672636151313782,-0.4895969033241272,-0.3189502656459808,-0.8114480376243591,-19.50382232666016,-30.15792083740234,-49.14068603515625,2
2017-11-27 14:36:03.859 -0800,47,C4D50155-580C-4885-BACB-A13DEF47355A,1511822160.671754,49.27720040328072,-122.9074621092278,343.0549,-1,-1,10,65,-9999,225874.8667642917,-0.4918365478515625,-0.18292236328125,-0.8443450927734375,225874.8456772917,-0.7583420446188973,-1.107324804391753,-2.589334536236716,225874.8316692917,0.9389319556460146,-0.5428878762681673,0.3246216848885177,-0.9099909067153931,-0.9479763507843018,-2.581493616104126,-0.0634579062461853,-0.04460567235946655,0.1017465591430664,XArbitraryCorrectedZVertical,0.2586044371128082,-0.1655285954475403,0.3914918303489685,0.8672636151313782,-0.4895969033241272,-0.3189502656459808,-0.8114480376243591,-19.50382232666016,-30.15792083740234,-49.14068603515625,2
2017-11-27 14:36:03.876 -0800,48,C4D50155-580C-4885-BACB-A13DEF47355A,1511822160.671754,49.27720040328072,-122.9074621092278,343.0549,-1,-1,10,65,-9999,225874.8968242917,-0.5585479736328125,-0.314453125,-0.789520263671875,225874.8807722917,-0.7447039966766015,-1.461517772521239,-2.730321219081075,225874.8667642917,0.8410505899023993,-0.5518276766834298,0.3493611301604768,-0.7167720794677734,-1.469134449958801,-2.730199098587036,-0.0001806020736694336,0.1556062996387482,-0.03917920589447021,XArbitraryCorrectedZVertical,0.2622327506542206,-0.1766331046819687,0.3436157405376434,0.8841104507446289,-0.4925409555435181,-0.3422976136207581,-0.8000694513320923,-18.51923561096191,-30.66869735717773,-49.21002197265625,2
2017-11-27 14:36:03.906 -0800,49,C4D50155-580C-4885-BACB-A13DEF47355A,1511822160.671754,49.27720040328072,-122.9074621092278,343.0549,-1,-1,10,65,-9999,225874.9268842917,-0.3905792236328125,-0.2727203369140625,-0.884552001953125,225874.9158372917,-0.2907146593346848,-0.844308618290546,-1.812198031172911,225874.9017992917,0.7429522608415168,-0.5662503404644459,0.3783491054640698,-0.5538815259933472,-1.154890894889832,-2.403122901916504,-0.06181174516677856,0.05540674924850464,0.0002362728118896484,XArbitraryCorrectedZVertical,0.2679007053375244,-0.1901138722896576,0.2933840453624725,0.8976079225540161,-0.4984910190105438,-0.3693868517875671,-0.7841718792915344,-18.11343765258789,-31.18064498901367,-49.17083740234375,2
2017-11-27 14:36:03.945 -0800,50,C4D50155-580C-4885-BACB-A13DEF47355A,1511822160.671754,49.27720040328072,-122.9074621092278,343.0549,-1,-1,10,65,-9999,225874.9569442917,-0.33673095703125,-0.4649810791015625,-0.80450439453125,225874.9509322917,0.08486029655482989,-0.367219021653282,-0.7395252136208335,225874.9368942917,0.6803894272139533,-0.5729930595519779,0.4042463279761613,-0.0674542561173439,-0.7151745557785034,-1.334872364997864,0.1686827540397644,0.1203156709671021,-0.06068593263626099,XArbitraryCorrectedZVertical,0.2739646136760712,-0.1967194229364395,0.2600841820240021,0.9045934081077576,-0.4984098970890045,-0.3933259546756744,-0.7724897265434265,-17.17853355407715,-31.55580902099609,-49.17385864257812,2
2017-11-27 14:36:03.967 -0800,51,C4D50155-580C-4885-BACB-A13DEF47355A,1511822160.671754,49.27720040328072,-122.9074621092278,343.0549,-1,-1,10,65,-9999,225874.9870042917,-0.4355621337890625,-0.462432861328125,-0.9311676025390625,225874.9859662917,0.3647763703014614,-0.5658112104565999,0.3488927449280108,225874.9719282917,0.6605433821169289,-0.5778480851238248,0.4192566920018771,0.1298695951700211,-0.1658359467983246,-0.07282368093729019,0.07028257846832275,-0.145347535610199,-0.04986941814422607,XArbitraryCorrectedZVertical,0.2791284024715424,-0.1989327222108841,0.2479737251996994,0.9059303998947144,-0.4988714158535004,-0.4070816338062286,-0.7650262117385864,-16.87790870666504,-32.37911224365234,-48.70465087890625,2
2017-11-27 14:36:03.998 -0800,52,C4D50155-580C-4885-BACB-A13DEF47355A,1511822160.671754,49.27720040328072,-122.9074621092278,343.0549,-1,-1,10,65,-9999,225875.0170632917,-0.5548858642578125,-0.1453857421875,-0.80914306640625,225874.9859662917,0.3647763703014614,-0.5658112104565999,0.3488927449280108,225875.0070232917,0.6756399877615837,-0.6053550089425399,0.4234583925908836,0.301409125328064,-0.9868178367614746,0.2112623751163483,-0.01050853729248047,0.1992306113243103,-0.1409196853637695,XArbitraryCorrectedZVertical,0.2859083116054535,-0.2084638476371765,0.2502050399780273,0.9010462760925293,-0.518742561340332,-0.4109158217906952,-0.749598503112793,-18.24480438232422,-32.70461273193359,-47.929931640625,2
2017-11-27 14:36:04.026 -0800,53,C4D50155-580C-4885-BACB-A13DEF47355A,1511822160.671754,49.27720040328072,-122.9074621092278,343.0549,-1,-1,10,65,-9999,225875.0471232917,-0.4810333251953125,-0.257781982421875,-0.7668914794921875,225875.0210612917,-0.0174836525563702,-1.078420451816687,-0.3868545083704363,225875.0420882917,0.6637495305317489,-0.6400450667167059,0.4331542100510654,0.0007992330938577652,-1.274039030075073,-0.9340130090713501,0.07645821571350098,0.2697571516036987,-0.03715592622756958,XArbitraryCorrectedZVertical,0.2930148243904114,-0.2240143567323685,0.2381385862827301,0.8982970714569092,-0.5420191287994385,-0.4197357892990112,-0.7279197573661804,-19.19709777832031,-32.95029449462891,-47.32937622070312,2
2017-11-27 14:36:04.057 -0800,54,C4D50155-580C-4885-BACB-A13DEF47355A,1511822160.671754,49.27720040328072,-122.9074621092278,343.0549,-1,-1,10,65,-9999,225875.0771832917,-0.7735595703125,-0.57830810546875,-0.64715576171875,225875.0560952917,0.289680820199516,-1.429937741998971,-1.307285059047044,225875.0420882917,0.6637495305317489,-0.6400450667167059,0.4331542100510654,0.0007992330938577652,-1.274039030075073,-0.9340130090713501,0.07645821571350098,0.2697571516036987,-0.03715592622756958,XArbitraryCorrectedZVertical,0.2930148243904114,-0.2240143567323685,0.2381385862827301,0.8982970714569092,-0.5420191287994385,-0.4197357892990112,-0.7279197573661804,-19.19709777832031,-32.95029449462891,-47.32937622070312,2
2017-11-27 14:36:04.106 -0800,55,C4D50155-580C-4885-BACB-A13DEF47355A,1511822160.671754,49.27720040328072,-122.9074621092278,343.0549,-1,-1,10,65,-9999,225875.1072432917,-0.599761962890625,-0.4035491943359375,-0.6105804443359375,225875.0911912917,0.8098704832864044,-1.554977948868153,-0.09832550534237952,225875.0771832917,0.6399023815187179,-0.6802757917088645,0.4647692093103381,0.6377999186515808,-1.513866662979126,-0.4474254548549652,-0.2054359912872314,-0.1314038336277008,0.04147243499755859,XArbitraryCorrectedZVertical,0.3082624077796936,-0.2398903965950012,0.2155949026346207,0.8947811722755432,-0.5622184276580811,-0.4482164978981018,-0.6948537826538086,-20.15033721923828,-33.85567474365234,-46.0140380859375,2
2017-11-27 14:36:04.117 -0800,56,C4D50155-580C-4885-BACB-A13DEF47355A,1511822160.671754,49.27720040328072,-122.9074621092278,343.0549,-1,-1,10,65,-9999,225875.1373032917,-0.629913330078125,-0.4743804931640625,-0.515228271484375,225875.1262552917,0.8040504110401453,-2.050579977190885,-0.7079603631167782,225875.1122172917,0.6546707907119256,-0.7443627241347088,0.4904004513954343,0.7802473306655884,-1.885601162910461,-0.4116579294204712,-0.004754066467285156,0.06808611750602722,0.0414433479309082,XArbitraryCorrectedZVertical,0.3276181519031525,-0.2613326907157898,0.2069510221481323,0.8838724493980408,-0.5975713729858398,-0.4709791839122772,-0.6487431526184082,-22.54441070556641,-35.68908309936523,-43.64459228515625,2
2017-11-27 14:36:04.147 -0800,57,C4D50155-580C-4885-BACB-A13DEF47355A,1511822160.671754,49.27720040328072,-122.9074621092278,343.0549,-1,-1,10,65,-9999,225875.1673622917,-0.6371917724609375,-0.4419708251953125,-0.4599151611328125,225875.1613512917,0.6785585320500854,-1.956083564863821,-1.256699379405425,225875.1473122917,0.6576708912022557,-0.8164478761930645,0.5285586243900348,0.8717087507247925,-1.935973763465881,-0.9078159332275391,0.0250244140625,0.02171474695205688,0.1350980997085571,XArbitraryCorrectedZVertical,0.3507280945777893,-0.2852367758750916,0.1879535913467407,0.8717746734619141,-0.6291655898094177,-0.5042892098426819,-0.5912595987319946,-24.91116142272949,-37.43037414550781,-40.52413940429688,2
2017-11-27 14:36:04.182 -0800,58,C4D50155-580C-4885-BACB-A13DEF47355A,1511822160.671754,49.27720040328072,-122.9074621092278,343.0549,-1,-1,10,65,-9999,225875.1974222917,-0.7020416259765625,-0.5895538330078125,-0.30450439453125,225875.1963852917,0.04219166220179835,-0.9352457158207188,-1.118169196350555,225875.1823472917,0.6442468031032966,-0.8767332419921724,0.575809795430286,0.3496210277080536,-1.797241806983948,-1.351043105125427,0.03041034936904907,0.08356142044067383,0.07771569490432739,XArbitraryCorrectedZVertical,0.3727964758872986,-0.3046599924564362,0.1604957580566406,0.8614720106124878,-0.6445766091346741,-0.5445141792297363,-0.5364101529121399,-25.44027328491211,-38.62334442138672,-38.92233276367188,2
2017-11-27 14:36:04.207 -0800,59,C4D50155-580C-4885-BACB-A13DEF47355A,1511822160.671754,49.27720040328072,-122.9074621092278,343.0549,-1,-1,10,65,-9999,225875.2274822917,-0.58203125,-0.7530364990234375,-0.59527587890625,225875.1963852917,0.04219166220179835,-0.9352457158207188,-1.118169196350555,225875.2174422917,0.6126903388999713,-0.8913732104809315,0.6070521366000298,-0.4125471413135529,-0.2531827092170715,-1.128495931625366,0.06647449731826782,-0.1618052124977112,0.1052285432815552,XArbitraryCorrectedZVertical,0.3812733888626099,-0.310883104801178,0.1367978304624557,0.8596259951591492,-0.6388011574745178,-0.5704487562179565,-0.5159645676612854,-25.59165954589844,-40.02446746826172,-36.93911743164062,2
2017-11-27 14:36:04.238 -0800,60,C4D50155-580C-4885-BACB-A13DEF47355A,1511822160.671754,49.27720040328072,-122.9074621092278,343.0549,-1,-1,10,65,-9999,225875.2575422917,-0.6085052490234375,-0.38787841796875,-0.52337646484375,225875.2314802917,-0.4296536376168817,-1.074298677397571,-1.088938872858064,225875.2525072917,0.5704745895544547,-0.8994621889637137,0.6276204870300166,-0.273100346326828,-1.12687361240387,-1.020610690116882,0.06952351331710815,0.08390921354293823,-0.08824378252029419,XArbitraryCorrectedZVertical,0.3831882774829865,-0.3185620009899139,0.1122200340032578,0.8595232367515564,-0.6336256861686707,-0.5872203707695007,-0.5033699870109558,-24.73190498352051,-40.5316162109375,-36.89984130859375,2
2017-11-27 14:36:04.270 -0800,61,C4D50155-580C-4885-BACB-A13DEF47355A,1511822160.671754,49.27720040328072,-122.9074621092278,343.0549,-1,-1,10,65,-9999,225875.2876022917,-0.5692291259765625,-0.483978271484375,-0.603485107421875,225875.2665142917,-0.8651348043310747,-0.6671130646332519,-0.3047487193310753,225875.2525072917,0.5704745895544547,-0.8994621889637137,0.6276204870300166,-0.273100346326828,-1.12687361240387,-1.020610690116882,0.06952351331710815,0.08390921354293823,-0.08824378252029419,XArbitraryCorrectedZVertical,0.3831882774829865,-0.3185620009899139,0.1122200340032578,0.8595232367515564,-0.6336256861686707,-0.5872203707695007,-0.5033699870109558,-24.73190498352051,-40.5316162109375,-36.89984130859375,2
2017-11-27 14:36:04.297 -0800,62,C4D50155-580C-4885-BACB-A13DEF47355A,1511822160.671754,49.27720040328072,-122.9074621092278,343.0549,-1,-1,10,65,-9999,225875.3176622917,-0.5507965087890625,-0.4228057861328125,-0.50152587890625,225875.3016092917,-1.405317616669515,0.05800205064527176,0.186869752633116,225875.2876022917,0.5331588290847336,-0.9003778822946118,0.6180053605199015,-1.254460573196411,-0.3147837519645691,0.1298902928829193,0.06540870666503906,0.0938912034034729,-0.1082566380500793,XArbitraryCorrectedZVertical,0.3734134435653687,-0.3277567327022552,0.09825813770294189,0.8620741367340088,-0.6384830474853516,-0.5794106125831604,-0.5062758326530457,-25.07590103149414,-40.04081726074219,-37.6241455078125,2
2017-11-27 14:36:04.345 -0800,63,C4D50155-580C-4885-BACB-A13DEF47355A,1511822160.671754,49.27720040328072,-122.9074621092278,343.0549,-1,-1,10,65,-9999,225875.3477212917,-0.65087890625,-0.50872802734375,-0.4521942138671875,225875.3366742917,-1.204625259030561,0.1422903001979526,-0.4037235033472162,225875.3226362917,0.4924589991943757,-0.8772870715815074,0.5838360796575573,-1.338307023048401,0.06960202753543854,0.04737477004528046,0.09196066856384277,0.1267901659011841,0.03015875816345215,XArbitraryCorrectedZVertical,0.3519003093242645,-0.330976814031601,0.09276068210601807,0.8704622983932495,-0.6414906978607178,-0.5512286424636841,-0.5332410335540771,-25.49961853027344,-38.91836166381836,-38.5718994140625,2
2017-11-27 14:36:04.357 -0800,64,C4D50155-580C-4885-BACB-A13DEF47355A,1511822160.671754,49.27720040328072,-122.9074621092278,343.0549,-1,-1,10,65,-9999,225875.3777812917,-0.633087158203125,-0.6070556640625,-0.477874755859375,225875.3717692917,-1.749625463464845,0.675887914108954,-0.9325687062929712,225875.3577312917,0.4414349933997245,-0.8441889969110452,0.5675166643789574,-1.270485639572144,0.2830604612827301,-0.865481972694397,-0.0752255916595459,0.01387333869934082,0.1004924178123474,XArbitraryCorrectedZVertical,0.3353679180145264,-0.3278487324714661,0.07978367805480957,0.8794127106666565,-0.6301424503326416,-0.5375396609306335,-0.5600871443748474,-24.90326118469238,-37.24586868286133,-40.94271850585938,2
2017-11-27 14:36:04.387 -0800,65,C4D50155-580C-4885-BACB-A13DEF47355A,1511822160.671754,49.27720040328072,-122.9074621092278,343.0549,-1,-1,10,65,-9999,225875.4078412917,-0.6116180419921875,-0.40374755859375,-0.7567138671875,225875.4068032917,-1.089156453119123,-0.2520506203128054,-0.8013595530747292,225875.3927962917,0.3663029768275549,-0.7818147678148591,0.5498456545071417,-1.773559093475342,0.7263974547386169,-0.7163090705871582,-0.004851758480072021,-0.0648924708366394,0.05481183528900146,XArbitraryCorrectedZVertical,0.3136472105979919,-0.3148919343948364,0.06032782047986984,0.8935981392860413,-0.600616991519928,-0.5225556492805481,-0.6049370169639587,-22.65932083129883,-35.19488525390625,-43.82083129882812,2
2017-11-27 14:36:04.419 -0800,66,C4D50155-580C-4885-BACB-A13DEF47355A,1511822160.671754,49.27720040328072,-122.9074621092278,343.0549,-1,-1,10,65,-9999,225875.4379012917,-0.5865478515625,-0.3946990966796875,-0.4405364990234375,225875.4068032917,-1.089156453119123,-0.2520506203128054,-0.8013595530747292,225875.4278912917,0.3124739313171767,-0.7593650225861039,0.5439330801204946,-0.4076946973800659,-0.4369571208953857,-0.9884640574455261,-0.02599835395812988,0.2099798321723938,0.1377745866775513,XArbitraryCorrectedZVertical,0.3020642697811127,-0.3138572573661804,0.04083069041371346,0.8990395665168762,-0.5890071988105774,-0.5175054669380188,-0.6205015778541565,-21.38882446289062,-34.16702270507812,-45.4222412109375,2
2017-11-27 14:36:04.447 -0800,67,C4D50155-580C-4885-BACB-A13DEF47355A,1511822160.671754,49.27720040328072,-122.9074621092278,343.0549,-1,-1,10,65,-9999,225875.4679612917,-0.5244598388671875,-0.5192108154296875,-0.4869537353515625,225875.4418992917,0.09007529860142305,-0.3426761279954388,-0.8372131581982479,225875.4629252917,0.2918307461308105,-0.7594859397541337,0.566815509813107,0.516593337059021,-0.1138262152671814,-0.636658251285553,0.02475637197494507,0.04837709665298462,0.1069775819778442,XArbitraryCorrectedZVertical,0.3087528944015503,-0.3143771588802338,0.02706658467650414,0.8971033692359924,-0.5807713866233826,-0.5369482636451721,-0.6116772890090942,-21.05468368530273,-34.65229415893555,-45.33761596679688,2
2017-11-27 14:36:04.478 -0800,68,C4D50155-580C-4885-BACB-A13DEF47355A,1511822160.671754,49.27720040328072,-122.9074621092278,343.0549,-1,-1,10,65,-9999,225875.4980202917,-0.6558837890625,-0.400543212890625,-0.53570556640625,225875.4769632917,-0.3037510991867317,0.5810024139466298,0.03194728043659054,225875.4629252917,0.2918307461308105,-0.7594859397541337,0.566815509813107,0.516593337059021,-0.1138262152671814,-0.636658251285553,0.02475637197494507,0.04837709665298462,0.1069775819778442,XArbitraryCorrectedZVertical,0.3087528944015503,-0.3143771588802338,0.02706658467650414,0.8971033692359924,-0.5807713866233826,-0.5369482636451721,-0.6116772890090942,-21.05468368530273,-34.65229415893555,-45.33761596679688,2
2017-11-27 14:36:04.507 -0800,69,C4D50155-580C-4885-BACB-A13DEF47355A,1511822160.671754,49.27720040328072,-122.9074621092278,343.0549,-1,-1,10,65,-9999,225875.5280802917,-0.6102752685546875,-0.4521484375,-0.58270263671875,225875.5120592917,0.2251087511450188,0.03793566446374272,-0.1542119408176923,225875.4980202917,0.2860804332524825,-0.7396121149940674,0.5664776245089176,-0.1643017530441284,0.3078696429729462,0.04093455523252487,-0.0766373872756958,0.1283685564994812,0.07570397853851318,XArbitraryCorrectedZVertical,0.3074415326118469,-0.3063693344593048,0.0276092141866684,0.900301992893219,-0.5686262845993042,-0.5366632342338562,-0.6232350468635559,-20.24773025512695,-34.94997024536133,-45.50411987304688,2
2017-11-27 14:36:04.538 -0800,70,C4D50155-580C-4885-BACB-A13DEF47355A,1511822160.671754,49.27720040328072,-122.9074621092278,343.0549,-1,-1,10,65,-9999,225875.5581402917,-0.5387725830078125,-0.654327392578125,-0.60009765625,225875.5470932917,0.9531584036287007,-1.330002888409856,-0.3291081211898121,225875.5330552917,0.2905681874193898,-0.7443885837203101,0.5772799536157507,0.7256181240081787,-0.5605932474136353,-0.2010217756032944,-0.04831838607788086,0.1039131879806519,0.04115128517150879,XArbitraryCorrectedZVertical,0.3128953576087952,-0.3065809011459351,0.02682261914014816,0.8983727097511292,-0.5676331520080566,-0.5457466840744019,-0.6162092685699463,-19.95187377929688,-35.30460357666016,-45.67611694335938,2
2017-11-27 14:36:04.579 -0800,71,C4D50155-580C-4885-BACB-A13DEF47355A,1511822160.671754,49.27720040328072,-122.9074621092278,343.0549,-1,-1,10,65,-9999,225875.5882002917,-0.3611602783203125,-0.81365966796875,-0.640777587890625,225875.5821882917,1.046974910929467,-1.565457754073724,0.1634025097395558,225875.5681502917,0.3101507602765786,-0.7999879431628446,0.6085358265316725,1.051130890846252,-1.525695204734802,-0.2505082488059998,0.1179217100143433,-0.1249275207519531,-0.04904317855834961,XArbitraryCorrectedZVertical,0.3300807178020477,-0.3244700729846954,0.02042053081095219,0.8860233426094055,-0.5884569883346558,-0.5716667175292969,-0.5715317726135254,-21.55140686035156,-37.03498840332031,-43.30267333984375,2
2017-11-27 14:36:04.598 -0800,72,C4D50155-580C-4885-BACB-A13DEF47355A,1511822160.671754,49.27720040328072,-122.9074621092278,343.0549,-1,-1,10,65,-9999,225875.6182602917,-0.389068603515625,-0.66046142578125,-0.5505828857421875,225875.6172222917,0.8455893324587652,-1.681240546677682,1.223981380149366,225875.6032152917,0.3487580126864188,-0.876341106836011,0.6251434233678453,0.8182910680770874,-1.519403338432312,0.8151006698608398,0.3184656500816345,-0.2271033525466919,-0.04728353023529053,XArbitraryCorrectedZVertical,0.3443436920642853,-0.3493116796016693,0.02095535583794117,0.8710098266601562,-0.6229395270347595,-0.5852136015892029,-0.5188175439834595,-22.98870849609375,-37.67175674438477,-41.76516723632812,2
2017-11-27 14:36:04.628 -0800,73,C4D50155-580C-4885-BACB-A13DEF47355A,1511822160.671754,49.27720040328072,-122.9074621092278,343.0549,-1,-1,10,65,-9999,225875.6483202917,-0.8215484619140625,-0.46856689453125,-0.3652496337890625,225875.6172222917,0.8455893324587652,-1.681240546677682,1.223981380149366,225875.6383102917,0.4047787150291412,-0.9671533640893766,0.6135612912480621,0.8117695450782776,-1.65815532207489,0.6721349954605103,-0.08419901132583618,0.08783727884292603,0.1226685047149658,XArbitraryCorrectedZVertical,0.3510695695877075,-0.3804654777050018,0.03205922991037369,0.8547845482826233,-0.672942042350769,-0.575782835483551,-0.4639923572540283,-26.94831085205078,-38.36987686157227,-38.85208129882812,2
2017-11-27 14:36:04.665 -0800,74,C4D50155-580C-4885-BACB-A13DEF47355A,1511822160.671754,49.27720040328072,-122.9074621092278,343.0549,-1,-1,10,65,-9999,225875.678362,-0.6622772216796875,-0.6162261962890625,-0.425567626953125,225875.6523172917,0.7558748921850479,-1.639207875192961,0.2439892316931355,225875.673327,0.4390490336711999,-1.044374703362094,0.6181200601664104,0.6122282743453979,-1.601002216339111,0.3569729626178741,0.06426858901977539,0.03233915567398071,0.0007315278053283691,XArbitraryCorrectedZVertical,0.3608387112617493,-0.4063428044319153,0.03167827427387238,0.8386691212654114,-0.7044358253479004,-0.5795040726661682,-0.4093618988990784,-30.77652168273926,-39.10283660888672,-35.96212768554688,2
2017-11-27 14:36:04.688 -0800,75,C4D50155-580C-4885-BACB-A13DEF47355A,1511822160.671754,49.27720040328072,-122.9074621092278,343.0549,-1,-1,10,65,-9999,225875.708422,-0.51513671875,-0.7423095703125,-0.54241943359375,225875.687365,0.2224780806202385,-1.447713543326922,0.6791428295932488,225875.673327,0.4390490336711999,-1.044374703362094,0.6181200601664104,0.6122282743453979,-1.601002216339111,0.3569729626178741,0.06426858901977539,0.03233915567398071,0.0007315278053283691,XArbitraryCorrectedZVertical,0.3608387112617493,-0.4063428044319153,0.03167827427387238,0.8386691212654114,-0.7044358253479004,-0.5795040726661682,-0.4093618988990784,-30.77652168273926,-39.10283660888672,-35.96212768554688,2
2017-11-27 14:36:04.739 -0800,76,C4D50155-580C-4885-BACB-A13DEF47355A,1511822160.671754,49.27720040328072,-122.9074621092278,343.0549,-1,-1,10,65,-9999,225875.738482,-0.57501220703125,-0.65423583984375,-0.0713653564453125,225875.72246,0.1578460904412145,-2.52558351974629,0.690237026062301,225875.708422,0.4622377086949775,-1.113450555121589,0.6020000679115654,0.1146665066480637,-1.922125339508057,0.8394114971160889,0.2216291427612305,-0.1755139827728271,-0.1763705015182495,XArbitraryCorrectedZVertical,0.3606776297092438,-0.4335820972919464,0.03318160399794579,0.8249277472496033,-0.7392835021018982,-0.5662920475006104,-0.3638364374637604,-34.12049102783203,-38.81460571289062,-33.27627563476562,2
2017-11-27 14:36:04.748 -0800,77,C4D50155-580C-4885-BACB-A13DEF47355A,1511822160.671754,49.27720040328072,-122.9074621092278,343.0549,-1,-1,10,65,-9999,225875.768542,-0.7199859619140625,-0.8687744140625,-0.6024017333984375,225875.757494,-2.315903259744427,-0.4931684317186175,0.4452246078783569,225875.743456,0.4661382328699661,-1.189407567372875,0.5787256440989756,-1.414915204048157,-0.8178697824478149,0.4553989470005035,0.2090376019477844,-0.1146482825279236,0.1804156303405762,XArbitraryCorrectedZVertical,0.3540471196174622,-0.4678660929203033,0.02775729075074196,0.8091167807579041,-0.7767713665962219,-0.5469575524330139,-0.3115039169788361,-36.24784851074219,-38.70710372924805,-31.62091064453125,2
2017-11-27 14:36:04.778 -0800,78,C4D50155-580C-4885-BACB-A13DEF47355A,1511822160.671754,49.27720040328072,-122.9074621092278,343.0549,-1,-1,10,65,-9999,225875.798602,-0.677764892578125,-0.7542572021484375,-0.3368377685546875,225875.79259,-3.489412144598502,-1.646057259200536,-0.2141655559097742,225875.778552,0.3814352095986649,-1.166431808119052,0.5345697335444701,-2.781825304031372,-1.18781590461731,0.1367767304182053,0.01070469617843628,-0.3102771043777466,-0.09820938110351562,XArbitraryCorrectedZVertical,0.3172002732753754,-0.4797481596469879,0.009745171293616295,0.8178134560585022,-0.7908713221549988,-0.5094708204269409,-0.3384513854980469,-38.60840225219727,-36.41726684570312,-32.53518676757812,2
2017-11-27 14:36:04.824 -0800,79,C4D50155-580C-4885-BACB-A13DEF47355A,1511822160.671754,49.27720040328072,-122.9074621092278,343.0549,-1,-1,10,65,-9999,225875.828661,-0.78253173828125,-0.61260986328125,-0.5349884033203125,225875.827624,-3.341925218165478,-1.912054321509868,-0.6321705269186493,225875.813616,0.251095733935812,-1.16234862270564,0.4935061592627824,-3.733644485473633,-2.110084772109985,-0.3913994431495667,0.1397004723548889,-0.2452470362186432,-0.03108251094818115,XArbitraryCorrectedZVertical,0.2692517638206482,-0.5026462078094482,-0.03160235285758972,0.8206946849822998,-0.8080201745033264,-0.4737165868282318,-0.349700540304184,-40.92460632324219,-32.796875,-35.11962890625,2
2017-11-27 14:36:04.838 -0800,80,C4D50155-580C-4885-BACB-A13DEF47355A,1511822160.671754,49.27720040328072,-122.9074621092278,343.0549,-1,-1,10,65,-9999,225875.858721,-0.748565673828125,-0.5673065185546875,-0.6243133544921875,225875.827624,-3.341925218165478,-1.912054321509868,-0.6321705269186493,225875.848711,0.1191556871128473,-1.168867181941554,0.4644793835961039,-3.251780033111572,-1.727981209754944,-0.4857964515686035,0.06339609622955322,-0.1699320077896118,-0.2901098728179932,XArbitraryCorrectedZVertical,0.223612055182457,-0.5245639681816101,-0.07848160713911057,0.8175323009490967,-0.8225970864295959,-0.4479573965072632,-0.3496605753898621,-43.08648681640625,-29.17378807067871,-36.39224243164062,2
2017-11-27 14:36:04.868 -0800,81,C4D50155-580C-4885-BACB-A13DEF47355A,1511822160.671754,49.27720040328072,-122.9074621092278,343.0549,-1,-1,10,65,-9999,225875.888781,-0.686431884765625,-0.454498291015625,-0.5268402099609375,225875.862719,-3.001472297048037,-1.500840411280695,-0.1356683501474706,225875.883746,0.009373576279514233,-1.174163725562794,0.4276697249232871,-2.888839483261108,-1.378499507904053,0.1003071591258049,0.187614917755127,-0.193021297454834,-0.2269949913024902,XArbitraryCorrectedZVertical,0.1792246550321579,-0.540519118309021,-0.1137830913066864,0.8139160871505737,-0.8390889167785645,-0.4147515296936035,-0.3514352142810822,-45.3653564453125,-25.68111419677734,-37.40249633789062,2
2017-11-27 14:36:04.905 -0800,82,C4D50155-580C-4885-BACB-A13DEF47355A,1511822160.671754,49.27720040328072,-122.9074621092278,343.0549,-1,-1,10,65,-9999,225875.918841,-0.769744873046875,-0.2017364501953125,-0.3242034912109375,225875.897784,-2.834016988761599,-1.174476411278101,-0.0977534583402305,225875.883746,0.009373576279514233,-1.174163725562794,0.4276697249232871,-2.888839483261108,-1.378499507904053,0.1003071591258049,0.187614917755127,-0.193021297454834,-0.2269949913024902,XArbitraryCorrectedZVertical,0.1792246550321579,-0.540519118309021,-0.1137830913066864,0.8139160871505737,-0.8390889167785645,-0.4147515296936035,-0.3514352142810822,-45.3653564453125,-25.68111419677734,-37.40249633789062,2
2017-11-27 14:36:04.928 -0800,83,C4D50155-580C-4885-BACB-A13DEF47355A,1511822160.671754,49.27720040328072,-122.9074621092278,343.0549,-1,-1,10,65,-9999,225875.948901,-1.006134033203125,-0.2758331298828125,-0.4193115234375,225875.932879,-2.719506388210372,-0.8610314057234807,0.1369658422305572,225875.918841,-0.09273812511668229,-1.177733346508523,0.3909105219022818,-2.9167320728302,-1.210626721382141,-0.01147305220365524,0.08957219123840332,0.1730988919734955,0.0224534273147583,XArbitraryCorrectedZVertical,0.1360737085342407,-0.5517815351486206,-0.1456107497215271,0.8096338510513306,-0.8538544178009033,-0.381030410528183,-0.3540421724319458,-46.26686477661133,-23.90539741516113,-37.77890014648438,2
2017-11-27 14:36:04.979 -0800,84,C4D50155-580C-4885-BACB-A13DEF47355A,1511822160.671754,49.27720040328072,-122.9074621092278,343.0549,-1,-1,10,65,-9999,225875.97896,-0.5457763671875,-0.2714385986328125,-0.47283935546875,225875.967913,-1.386578816291391,-0.6401014206449053,0.1291654433977151,225875.953906,-0.1838173580860889,-1.173640055073156,0.3535586989032429,-2.288881778717041,-0.5179581046104431,-0.1205041855573654,-0.131788969039917,0.06839126348495483,-0.04677027463912964,XArbitraryCorrectedZVertical,0.09578318148851395,-0.5562644600868225,-0.1722424030303955,0.80710369348526,-0.8649303317070007,-0.3462385833263397,-0.3627908527851105,-48.03772354125977,-19.90437889099121,-38.5631103515625,2
2017-11-27 14:36:04.988 -0800,85,C4D50155-580C-4885-BACB-A13DEF47355A,1511822160.671754,49.27720040328072,-122.9074621092278,343.0549,-1,-1,10,65,-9999,225876.00902,-0.9658966064453125,-0.436737060546875,-0.338531494140625,225876.003008,0.09485833591920537,-0.3322618365526839,-0.03095392134999099,225875.989001,-0.2282529466352332,-1.178428794407123,0.3309819130439067,-0.6488432884216309,-0.4968887269496918,0.3788714706897736,0.1880221366882324,-0.03045117855072021,0.1064767837524414,XArbitraryCorrectedZVertical,0.07363229244947433,-0.5601847171783447,-0.1843735128641129,0.8040314316749573,-0.8736605644226074,-0.3249717950820923,-0.3615427315235138,-49.08101654052734,-17.36445236206055,-38.8199462890625,2
2017-11-27 14:36:05.018 -0800,86,C4D50155-580C-4885-BACB-A13DEF47355A,1511822160.671754,49.27720040328072,-122.9074621092278,343.0549,-1,-1,10,65,-9999,225876.03908,-0.8745880126953125,-0.5296478271484375,-0.3398284912109375,225876.038073,0.5495611341171543,-0.7470837974266963,-0.7073920445401554,225876.024035,-0.2273565083805207,-1.191930642095711,0.3340006596300916,0.4010100960731506,-0.4544480741024017,-0.4364819526672363,-0.2016960382461548,-0.08402475714683533,0.01666074991226196,XArbitraryCorrectedZVertical,0.07387931644916534,-0.5655685663223267,-0.1853147149085999,0.8000132441520691,-0.8775428533554077,-0.3278252184391022,-0.3493480980396271,-49.84496307373047,-17.6354808807373,-38.55078125,2
2017-11-27 14:36:05.064 -0800,87,C4D50155-580C-4885-BACB-A13DEF47355A,1511822160.671754,49.27720040328072,-122.9074621092278,343.0549,-1,-1,10,65,-9999,225876.06914,-0.7159271240234375,-0.5236053466796875,-0.2379608154296875,225876.038073,0.5495611341171543,-0.7470837974266963,-0.7073920445401554,225876.05913,-0.2179180969271395,-1.219424035141836,0.363757222906744,0.6165432929992676,-0.7354729771614075,-0.8458222150802612,0.1615706086158752,-0.191315770149231,-0.02599245309829712,XArbitraryCorrectedZVertical,0.08614767342805862,-0.5760076642036438,-0.1906853467226028,0.7900136113166809,-0.8772535920143127,-0.3557881116867065,-0.3215875029563904,-50.154541015625,-18.75443267822266,-37.88345336914062,2
2017-11-27 14:36:05.079 -0800,88,C4D50155-580C-4885-BACB-A13DEF47355A,1511822160.671754,49.27720040328072,-122.9074621092278,343.0549,-1,-1,10,65,-9999,225876.0992,-0.4045867919921875,-0.5055389404296875,-0.5330963134765625,225876.073168,0.6559794533800667,-0.5078594935559305,-1.18024002450925,225876.094164,-0.2170899226435875,-1.239419183163215,0.4118342358824019,-0.1528225392103195,-0.5411630868911743,-1.89543890953064,0.5576823353767395,-0.1109090745449066,-0.16162109375,XArbitraryCorrectedZVertical,0.1038591414690018,-0.583250105381012,-0.2044290006160736,0.7790570855140686,-0.8663066029548645,-0.4002908766269684,-0.298065185546875,-50.25877380371094,-21.92473411560059,-36.29550170898438,2
2017-11-27 14:36:05.109 -0800,89,C4D50155-580C-4885-BACB-A13DEF47355A,1511822160.671754,49.27720040328072,-122.9074621092278,343.0549,-1,-1,10,65,-9999,225876.12926,-0.5485076904296875,-0.527679443359375,-0.421783447265625,225876.108202,-0.9671083077346448,-0.7731814445289278,-2.239299295201061,225876.094164,-0.2170899226435875,-1.239419183163215,0.4118342358824019,-0.1528225392103195,-0.5411630868911743,-1.89543890953064,0.5576823353767395,-0.1109090745449066,-0.16162109375,XArbitraryCorrectedZVertical,0.1038591414690018,-0.583250105381012,-0.2044290006160736,0.7790570855140686,-0.8663066029548645,-0.4002908766269684,-0.298065185546875,-50.25877380371094,-21.92473411560059,-36.29550170898438,2
2017-11-27 14:36:05.144 -0800,90,C4D50155-580C-4885-BACB-A13DEF47355A,1511822160.671754,49.27720040328072,-122.9074621092278,343.0549,-1,-1,10,65,-9999,225876.159319,-0.593963623046875,-0.673583984375,-0.1707763671875,225876.143298,-1.761629662078378,-0.6825918895210105,-2.732347884670625,225876.12926,-0.2805397125314895,-1.239514724131798,0.4757592123626431,-1.432101726531982,-0.9405608177185059,-2.506043195724487,0.2927212119102478,-0.07012373208999634,-0.1362704038619995,XArbitraryCorrectedZVertical,0.1109911724925041,-0.5857938528060913,-0.2461890280246735,0.7639411091804504,-0.8403744101524353,-0.4580134749412537,-0.2890530526638031,-49.28839111328125,-25.16998672485352,-35.881591796875,2
2017-11-27 14:36:05.169 -0800,91,C4D50155-580C-4885-BACB-A13DEF47355A,1511822160.671754,49.27720040328072,-122.9074621092278,343.0549,-1,-1,10,65,-9999,225876.189379,-0.6184844970703125,-0.7273101806640625,-0.07989501953125,225876.178332,-1.604228585855315,-0.02640524220813565,-2.580026788226889,225876.164324,-0.3810829341973997,-1.214287368869291,0.5445501435617511,-1.749493002891541,-0.4090949594974518,-2.665899753570557,0.2086396217346191,-0.1498590707778931,0.1293225884437561,XArbitraryCorrectedZVertical,0.1127608418464661,-0.5814353823661804,-0.3005334436893463,0.7473862171173096,-0.8013367652893066,-0.5180333256721497,-0.298435777425766,-47.13833236694336,-28.10506439208984,-36.89724731445312,2
2017-11-27 14:36:05.218 -0800,92,C4D50155-580C-4885-BACB-A13DEF47355A,1511822160.671754,49.27720040328072,-122.9074621092278,343.0549,-1,-1,10,65,-9999,225876.219439,-0.7931060791015625,-0.8630523681640625,-0.109130859375,225876.213427,-1.467682191496446,0.497757590909042,-2.101910010357181,225876.199419,-0.4820594957176078,-1.16001341183925,0.607176071143215,-1.45394504070282,0.2742295563220978,-2.421624660491943,0.1121275424957275,-0.1852630376815796,0.2366946935653687,XArbitraryCorrectedZVertical,0.1179527714848518,-0.567592978477478,-0.3497089743614197,0.7357429265975952,-0.75270676612854,-0.5705505609512329,-0.3278506994247437,-45.68720626831055,-29.20081329345703,-37.7891845703125,2
2017-11-27 14:36:05.229 -0800,93,C4D50155-580C-4885-BACB-A13DEF47355A,1511822160.671754,49.27720040328072,-122.9074621092278,343.0549,-1,-1,10,65,-9999,225876.249499,-0.882354736328125,-0.8516387939453125,-0.061065673828125,225876.248492,-1.446499940818173,0.5571242452968703,-1.413279935696634,225876.234454,-0.5780672371445487,-1.086005844230426,0.6500609083520589,-1.552740216255188,0.6245907545089722,-1.738763928413391,-0.1323381662368774,-0.2884571552276611,0.2753262519836426,XArbitraryCorrectedZVertical,0.1224517822265625,-0.5473342537879944,-0.3894963562488556,0.7303507328033447,-0.7041028738021851,-0.6052349209785461,-0.3708615601062775,-42.11370468139648,-30.96579360961914,-40.71713256835938,2
2017-11-27 14:36:05.259 -0800,94,C4D50155-580C-4885-BACB-A13DEF47355A,1511822160.671754,49.27720040328072,-122.9074621092278,343.0549,-1,-1,10,65,-9999,225876.279559,-0.9109954833984375,-0.8340911865234375,0.042205810546875,225876.248492,-1.446499940818173,0.5571242452968703,-1.413279935696634,225876.269549,-0.6617510794182379,-1.015640554080001,0.6695433715577339,-1.03691291809082,0.4646130800247192,-1.254223227500916,-0.2541846036911011,-0.2008594274520874,0.4194925427436829,XArbitraryCorrectedZVertical,0.1222619712352753,-0.5277044177055359,-0.4193024933338165,0.7283231616020203,-0.6661491990089417,-0.6206279993057251,-0.413160115480423,-38.49063873291016,-31.20211791992188,-44.04739379882812,2
2017-11-27 14:36:05.304 -0800,95,C4D50155-580C-4885-BACB-A13DEF47355A,1511822160.671754,49.27720040328072,-122.9074621092278,343.0549,-1,-1,10,65,-9999,225876.309618,-0.9941253662109375,-0.7465057373046875,0.067291259765625,225876.283587,-0.2976503297615781,0.2668822970556747,-1.311919491976,225876.304583,-0.7029271199452026,-0.9811011706190967,0.7035038379142242,0.3882989883422852,0.04356108605861664,-1.355456948280334,-0.2982307076454163,-0.1408871412277222,0.4945942759513855,XArbitraryCorrectedZVertical,0.1330207735300064,-0.5199350118637085,-0.4375660121440887,0.7212476134300232,-0.6335930228233337,-0.6468936204910278,-0.4239461123943329,-35.96617889404297,-33.00934982299805,-45.352783203125,2
2017-11-27 14:36:05.319 -0800,96,C4D50155-580C-4885-BACB-A13DEF47355A,1511822160.671754,49.27720040328072,-122.9074621092278,343.0549,-1,-1,10,65,-9999,225876.339678,-1.118301391601562,-0.802520751953125,-0.0153350830078125,225876.318621,0.9266237317915872,-0.1200651556368054,-1.220033510149432,225876.304583,-0.7029271199452026,-0.9811011706190967,0.7035038379142242,0.3882989883422852,0.04356108605861664,-1.355456948280334,-0.2982307076454163,-0.1408871412277222,0.4945942759513855,XArbitraryCorrectedZVertical,0.1330207735300064,-0.5199350118637085,-0.4375660121440887,0.7212476134300232,-0.6335930228233337,-0.6468936204910278,-0.4239461123943329,-35.96617889404297,-33.00934982299805,-45.352783203125,2
2017-11-27 14:36:05.349 -0800,97,C4D50155-580C-4885-BACB-A13DEF47355A,1511822160.671754,49.27720040328072,-122.9074621092278,343.0549,-1,-1,10,65,-9999,225876.369738,-1.086288452148438,-0.74114990234375,-0.1044769287109375,225876.353716,1.490191495345904,0.159443720779153,-0.2677307801789739,225876.339678,-0.6965010449051108,-0.9891291585161415,0.7553388908626673,1.215531945228577,-0.1192602142691612,-0.8630431294441223,-0.5073658227920532,-0.1159324645996094,0.3875276446342468,XArbitraryCorrectedZVertical,0.1544711589813232,-0.5255571007728577,-0.4438182413578033,0.7089730501174927,-0.6080974340438843,-0.6855354309082031,-0.3998567759990692,-34.67367935180664,-34.21308517456055,-44.82037353515625,2
2017-11-27 14:36:05.384 -0800,98,C4D50155-580C-4885-BACB-A13DEF47355A,1511822160.671754,49.27720040328072,-122.9074621092278,343.0549,-1,-1,10,65,-9999,225876.399798,-0.9556427001953125,-0.6032562255859375,-0.211456298828125,225876.388751,1.754695589548138,0.228880319880789,0.4211666758550172,225876.374743,-0.6402077026998769,-1.02259119272607,0.7907676352050708,1.684384226799011,0.4075133204460144,0.1997759789228439,-0.4895234107971191,-0.03449845314025879,0.2671245336532593,XArbitraryCorrectedZVertical,0.1767019629478455,-0.5344014763832092,-0.4322505295276642,0.7043009400367737,-0.5999999046325684,-0.7108933329582214,-0.3663829565048218,-33.66535949707031,-37.64552307128906,-43.167236328125,2
2017-11-27 14:36:05.409 -0800,99,C4D50155-580C-4885-BACB-A13DEF47355A,1511822160.671754,49.27720040328072,-122.9074621092278,343.0549,-1,-1,10,65,-9999,225876.429888,-0.9128875732421875,-0.59039306640625,-0.32464599609375,225876.423876,2.504461989140871,-0.9770658670504511,0.4374321985287851,225876.409838,-0.5506550339387163,-1.081910607738273,0.8125164082059568,2.115367650985718,-0.2598290145397186,0.2412273436784744,-0.3777874112129211,0.1136542558670044,0.1119099855422974,XArbitraryCorrectedZVertical,0.1973462998867035,-0.5473992824554443,-0.4100276529788971,0.7021217346191406,-0.6068469882011414,-0.7260199189186096,-0.32281693816185,-33.28643417358398,-40.03881072998047,-40.66351318359375,2
2017-11-27 14:36:05.464 -0800,100,C4D50155-580C-4885-BACB-A13DEF47355A,1511822160.671754,49.27720040328072,-122.9074621092278,343.0549,-1,-1,10,65,-9999,225876.459948,-0.8551788330078125,-0.6446533203125,-0.3353729248046875,225876.45891,2.291248247004691,-1.229335399204861,0.5796481965323246,225876.444872,-0.4265119376824286,-1.206356092826975,0.8354238787987888,2.519266605377197,-1.336942672729492,0.4673060476779938,-0.2566593885421753,0.1684303283691406,-0.07931077480316162,XArbitraryCorrectedZVertical,0.216744139790535,-0.5775189995765686,-0.3843466937541962,0.6866296529769897,-0.6264735460281372,-0.7415809631347656,-0.2389875650405884,-35.19476318359375,-43.26677703857422,-35.6209716796875,2
2017-11-27 14:36:05.469 -0800,101,C4D50155-580C-4885-BACB-A13DEF47355A,1511822160.671754,49.27720040328072,-122.9074621092278,343.0549,-1,-1,10,65,-9999,225876.490008,-0.738067626953125,-0.5968170166015625,-0.33648681640625,225876.45891,2.291248247004691,-1.229335399204861,0.5796481965323246,225876.479968,-0.3044371895127566,-1.339380013316986,0.8385390512367854,1.95124876499176,-1.017814159393311,0.7415347099304199,-0.1281439065933228,0.1287075281143188,-0.1895582675933838,XArbitraryCorrectedZVertical,0.2294744104146957,-0.6088666915893555,-0.3584945797920227,0.6691734790802002,-0.65034419298172,-0.7436671853065491,-0.1532456874847412,-36.47623825073242,-44.36019897460938,-32.44387817382812,2
2017-11-27 14:36:05.500 -0800,102,C4D50155-580C-4885-BACB-A13DEF47355A,1511822160.671754,49.27720040328072,-122.9074621092278,343.0549,-1,-1,10,65,-9999,225876.520068,-0.6889801025390625,-0.593597412109375,-0.35150146484375,225876.494006,1.507177935726757,-0.7145250552038236,0.8790727242121135,225876.515032,-0.2197848238480512,-1.427100362287106,0.8180055217908822,1.148115515708923,-0.5781648755073547,0.9574712514877319,-0.009535431861877441,0.1317765116691589,-0.257074236869812,XArbitraryCorrectedZVertical,0.23297518491745,-0.6299206018447876,-0.3349337875843048,0.6606289744377136,-0.6762250661849976,-0.7297837138175964,-0.09784519672393799,-39.31157302856445,-45.52765274047852,-27.59194946289062,2
2017-11-27 14:36:05.541 -0800,103,C4D50155-580C-4885-BACB-A13DEF47355A,1511822160.671754,49.27720040328072,-122.9074621092278,343.0549,-1,-1,10,65,-9999,225876.550127,-0.726837158203125,-0.637237548828125,-0.2532958984375,225876.52904,0.9277521131454538,-1.140823908795533,0.8747797085349057,225876.515032,-0.2197848238480512,-1.427100362287106,0.8180055217908822,1.148115515708923,-0.5781648755073547,0.9574712514877319,-0.009535431861877441,0.1317765116691589,-0.257074236869812,XArbitraryCorrectedZVertical,0.23297518491745,-0.6299206018447876,-0.3349337875843048,0.6606289744377136,-0.6762250661849976,-0.7297837138175964,-0.09784519672393799,-39.31157302856445,-45.52765274047852,-27.59194946289062,2
2017-11-27 14:36:05.559 -0800,104,C4D50155-580C-4885-BACB-A13DEF47355A,1511822160.671754,49.27720040328072,-122.9074621092278,343.0549,-1,-1,10,65,-9999,225876.580187,-0.6953125,-0.7463226318359375,-0.0995025634765625,225876.564135,1.034592277125035,-1.546100834006592,0.7002963181317482,225876.550127,-0.1654432940089372,-1.507183623660679,0.7908407604426514,1.052974462509155,-1.505071997642517,0.8216009140014648,-0.02752447128295898,0.0740276575088501,-0.2094261646270752,XArbitraryCorrectedZVertical,0.2277417331933975,-0.6525292992591858,-0.3183991014957428,0.6485752463340759,-0.7014032006263733,-0.7109447717666626,-0.04467843472957611,-42.50534820556641,-45.89579010009766,-24.01025390625,2
2017-11-27 14:36:05.590 -0800,105,C4D50155-580C-4885-BACB-A13DEF47355A,1511822160.671754,49.27720040328072,-122.9074621092278,343.0549,-1,-1,10,65,-9999,225876.610247,-0.7002410888671875,-0.6650238037109375,0.0202789306640625,225876.5992,1.05959083764539,-1.600927065051944,0.4400644669502194,225876.585162,-0.1132045005982354,-1.598917667247294,0.7676091264942839,1.01744282245636,-1.610649824142456,0.5324761867523193,0.02213066816329956,-0.05112761259078979,-0.123171329498291,XArbitraryCorrectedZVertical,0.2229817807674408,-0.6785199046134949,-0.304724246263504,0.6298583745956421,-0.7188469767570496,-0.6944168210029602,0.02022027038037777,-45.36595916748047,-45.80168151855469,-19.44564819335938,2
2017-11-27 14:36:05.620 -0800,106,C4D50155-580C-4885-BACB-A13DEF47355A,1511822160.671754,49.27720040328072,-122.9074621092278,343.0549,-1,-1,10,65,-9999,225876.640307,-0.678131103515625,-0.65399169921875,0.0764617919921875,225876.634295,1.081838619075803,-1.244723942931666,0.6019260716830553,225876.620257,-0.06307639846612324,-1.688661607941892,0.7479560861156691,1.112880349159241,-1.450667858123779,0.5516436696052551,0.02734136581420898,0.03771626949310303,-0.0516200065612793,XArbitraryCorrectedZVertical,0.2205799371004105,-0.7031499147415161,-0.2925576567649841,0.6091171503067017,-0.7275366187095642,-0.680141806602478,0.08615062385797501,-47.44705200195312,-45.75943756103516,-14.38150024414062,2
2017-11-27 14:36:05.650 -0800,107,C4D50155-580C-4885-BACB-A13DEF47355A,1511822160.671754,49.27720040328072,-122.9074621092278,343.0549,-1,-1,10,65,-9999,225876.67036975,-0.7463226318359375,-0.757843017578125,0.17950439453125,225876.66933175,0.9879621906505103,-0.9981205523125085,0.4476395623548408,225876.655291,-0.01646600988853101,-1.763259448075876,0.7215912539112026,1.065574288368225,-1.095142006874084,0.5580066442489624,0.03640133142471313,-0.02545499801635742,-0.02989482879638672,XArbitraryCorrectedZVertical,0.2185189425945282,-0.7238821387290955,-0.2774423062801361,0.5924179553985596,-0.7364287376403809,-0.6605801582336426,0.1435117572546005,-48.387451171875,-45.63757705688477,-12.21640014648438,2
2017-11-27 14:36:05.704 -0800,108,C4D50155-580C-4885-BACB-A13DEF47355A,1511822160.671754,49.27720040328072,-122.9074621092278,343.0549,-1,-1,10,65,-9999,225876.70042975,-0.83416748046875,-0.793182373046875,0.271820068359375,225876.66933175,0.9879621906505103,-0.9981205523125085,0.4476395623548408,225876.69038875,0.02467617605859094,-1.825545154064528,0.6987658996122791,0.9864080548286438,-0.9757688641548157,0.3249852657318115,-0.04152446985244751,-0.1405707001686096,0.03584814071655273,XArbitraryCorrectedZVertical,0.218494638800621,-0.7407227158546448,-0.2638294398784637,0.5776443481445312,-0.7404579520225525,-0.6432732939720154,0.1928201019763947,-50.09901809692383,-45.60300445556641,-8.095245361328125,2
2017-11-27 14:36:05.710 -0800,109,C4D50155-580C-4885-BACB-A13DEF47355A,1511822160.671754,49.27720040328072,-122.9074621092278,343.0549,-1,-1,10,65,-9999,225876.73048875,-0.928741455078125,-0.69952392578125,0.3751983642578125,225876.70442675,0.9955974734957674,-0.7985664297234542,0.3833876052633711,225876.72545375,0.06522026232909477,-1.879683301015096,0.6748147195366605,1.189881563186646,-0.6932501196861267,0.5304315090179443,-0.1689396500587463,-0.1187471151351929,0.12088942527771,XArbitraryCorrectedZVertical,0.2200218737125397,-0.755115807056427,-0.2491043657064438,0.5648242235183716,-0.7433986067771912,-0.6247526407241821,0.2372190207242966,-51.17177200317383,-44.9802131652832,-4.458831787109375,2
2017-11-27 14:36:05.740 -0800,110,C4D50155-580C-4885-BACB-A13DEF47355A,1511822160.671754,49.27720040328072,-122.9074621092278,343.0549,-1,-1,10,65,-9999,225876.76054875,-0.934234619140625,-0.6464385986328125,0.450439453125,225876.73946175,1.432220870001496,-0.7310928466613156,0.7223739235685052,225876.72545375,0.06522026232909477,-1.879683301015096,0.6748147195366605,1.189881563186646,-0.6932501196861267,0.5304315090179443,-0.1689396500587463,-0.1187471151351929,0.12088942527771,XArbitraryCorrectedZVertical,0.2200218737125397,-0.755115807056427,-0.2491043657064438,0.5648242235183716,-0.7433986067771912,-0.6247526407241821,0.2372190207242966,-51.17177200317383,-44.9802131652832,-4.458831787109375,2
2017-11-27 14:36:05.784 -0800,111,C4D50155-580C-4885-BACB-A13DEF47355A,1511822160.671754,49.27720040328072,-122.9074621092278,343.0549,-1,-1,10,65,-9999,225876.79060875,-0.7870330810546875,-0.5632781982421875,0.3470001220703125,225876.77455675,1.729397689721258,-0.6844094969649895,0.9832230954907143,225876.76054875,0.1146954097410271,-1.935202008529758,0.63382645085029,1.58639395236969,-0.7137346267700195,0.8769766092300415,-0.1848329305648804,-0.0551217794418335,0.1637206077575684,XArbitraryCorrectedZVertical,0.2213454395532608,-0.771040141582489,-0.2254061698913574,0.5526156425476074,-0.7523924112319946,-0.5922322869300842,0.2869934141635895,-52.81639862060547,-44.20089340209961,-0.245758056640625,2
2017-11-27 14:36:05.800 -0800,112,C4D50155-580C-4885-BACB-A13DEF47355A,1511822160.671754,49.27720040328072,-122.9074621092278,343.0549,-1,-1,10,65,-9999,225876.82066875,-0.7027587890625,-0.4965362548828125,0.256805419921875,225876.80962075,1.664005367051016,-0.1752165586512563,1.139579946250356,225876.79558275,0.1670672031511533,-1.988579062759504,0.5786739558544671,1.811261057853699,-0.5680787563323975,1.042073607444763,-0.02619659900665283,-0.01842385530471802,0.01227104663848877,XArbitraryCorrectedZVertical,0.22203429043293,-0.7876788973808289,-0.1948503702878952,0.5403562188148499,-0.7647274732589722,-0.546914279460907,0.3394745290279388,-53.38376617431641,-43.11883163452148,2.135009765625,2
2017-11-27 14:36:05.830 -0800,113,C4D50155-580C-4885-BACB-A13DEF47355A,1511822160.671754,49.27720040328072,-122.9074621092278,343.0549,-1,-1,10,65,-9999,225876.85072875,-0.620758056640625,-0.4246673583984375,0.261749267578125,225876.84471675,1.077380221094902,-0.09023322405406475,0.5429450430210705,225876.83067875,0.2097530897889091,-2.018700713189554,0.5195840431758656,1.455376982688904,-0.08655659854412079,0.9834819436073303,0.1172529458999634,0.03678703308105469,-0.1454538106918335,XArbitraryCorrectedZVertical,0.2216669023036957,-0.7991985082626343,-0.1624497026205063,0.5342701077461243,-0.7819563150405884,-0.4965191185474396,0.3757089376449585,-55.42941284179688,-40.79687881469727,6.0616455078125,2
2017-11-27 14:36:05.860 -0800,114,C4D50155-580C-4885-BACB-A13DEF47355A,1511822160.671754,49.27720040328072,-122.9074621092278,343.0549,-1,-1,10,65,-9999,225876.88078775,-0.628509521484375,-0.453826904296875,0.326629638671875,225876.87975075,0.8709311744436322,0.3004373278423461,0.01363112372346157,225876.86571275,0.2397408126594822,-2.035029895091952,0.4856170111960603,0.8943435549736023,0.0495113804936409,0.2364210337400436,0.1631214022636414,0.04745787382125854,-0.1190507411956787,XArbitraryCorrectedZVertical,0.2242085784673691,-0.8047405481338501,-0.1421546638011932,0.5306640863418579,-0.7903492450714111,-0.466754138469696,0.3957536816596985,-56.70340728759766,-39.08856964111328,8.067901611328125,2
2017-11-27 14:36:05.890 -0800,115,C4D50155-580C-4885-BACB-A13DEF47355A,1511822160.671754,49.27720040328072,-122.9074621092278,343.0549,-1,-1,10,65,-9999,225876.91084775,-0.7021484375,-0.480682373046875,0.36956787109375,225876.87975075,0.8709311744436322,0.3004373278423461,0.01363112372346157,225876.90080775,0.271149035637596,-2.039604582746907,0.4704698256563981,0.9674869179725647,0.428627222776413,-0.07717560976743698,0.1286717057228088,-0.00265800952911377,-0.03894305229187012,XArbitraryCorrectedZVertical,0.2329055666923523,-0.804370641708374,-0.1280015558004379,0.5310816168785095,-0.7947483658790588,-0.4533051252365112,0.4025142788887024,-57.08930206298828,-38.43891906738281,9.05914306640625,2
2017-11-27 14:36:05.947 -0800,116,C4D50155-580C-4885-BACB-A13DEF47355A,1511822160.671754,49.27720040328072,-122.9074621092278,343.0549,-1,-1,10,65,-9999,225876.94090775,-0.878448486328125,-0.4159088134765625,0.1002197265625,225876.91484575,0.6568729439257882,0.6744354260504247,-0.01494725793417873,225876.93587275,0.2860369494199261,-2.024740951089931,0.4593460400789597,-0.2346245348453522,0.6278086304664612,0.4562413394451141,-0.2511590719223022,-0.3189975917339325,-0.3482149839401245,XArbitraryCorrectedZVertical,0.2371204942464828,-0.8001233339309692,-0.1176233515143394,0.5379873514175415,-0.805130660533905,-0.4433620274066925,0.392846941947937,-57.3438720703125,-38.66145324707031,9.210205078125,2
2017-11-27 14:36:05.951 -0800,117,C4D50155-580C-4885-BACB-A13DEF47355A,1511822160.671754,49.27720040328072,-122.9074621092278,343.0549,-1,-1,10,65,-9999,225876.97096775,-0.9513702392578125,-0.5152740478515625,0.215850830078125,225876.94991075,0.1353399823850638,-0.080831200141649,-0.06894924062215148,225876.93587275,0.2860369494199261,-2.024740951089931,0.4593460400789597,-0.2346245348453522,0.6278086304664612,0.4562413394451141,-0.2511590719223022,-0.3189975917339325,-0.3482149839401245,XArbitraryCorrectedZVertical,0.2371204942464828,-0.8001233339309692,-0.1176233515143394,0.5379873514175415,-0.805130660533905,-0.4433620274066925,0.392846941947937,-57.3438720703125,-38.66145324707031,9.210205078125,2
2017-11-27 14:36:05.980 -0800,118,C4D50155-580C-4885-BACB-A13DEF47355A,1511822160.671754,49.27720040328072,-122.9074621092278,343.0549,-1,-1,10,65,-9999,225877.00102775,-0.8315887451171875,-0.5727996826171875,0.4365692138671875,225876.98500575,0.01418799070739714,-0.6659569864040485,-0.2555249802709227,225876.97096775,0.2858594233991468,-2.026788730233616,0.4579606486365593,-0.06782685220241547,-0.3977505266666412,-0.06639906764030457,-0.1520803570747375,-0.07443594932556152,-0.1851546764373779,XArbitraryCorrectedZVertical,0.2365947365760803,-0.8008778095245361,-0.1173351034522057,0.5371583104133606,-0.80487459897995,-0.4421198070049286,0.3947646617889404,-58.02774810791016,-38.20744323730469,8.968963623046875,2
2017-11-27 14:36:06.023 -0800,119,C4D50155-580C-4885-BACB-A13DEF47355A,1511822160.671754,49.27720040328072,-122.9074621092278,343.0549,-1,-1,10,65,-9999,225877.03108675,-0.7565155029296875,-0.524078369140625,0.458404541015625,225877.02003975,0.5218818356435247,0.1718961294041455,-0.06970344784286192,225877.00600175,0.2902502842637896,-2.048260956199496,0.4634091676757194,0.1613112390041351,-0.3408220112323761,-0.1481693536043167,-0.03419071435928345,-0.1229002177715302,0.02167153358459473,XArbitraryCorrectedZVertical,0.2383797913789749,-0.8053536415100098,-0.1209963485598564,0.5288003087043762,-0.7940563559532166,-0.4470003247261047,0.4108388125896454,-57.59103012084961,-38.43887710571289,10.28704833984375,2
2017-11-27 14:36:06.040 -0800,120,C4D50155-580C-4885-BACB-A13DEF47355A,1511822160.671754,49.27720040328072,-122.9074621092278,343.0549,-1,-1,10,65,-9999,225877.06114675,-0.806549072265625,-0.4329376220703125,0.395111083984375,225877.05513475,0.5179936204520091,0.1232345836501087,-0.1581646045075879,225877.04109675,0.3086962833124659,-2.05219290097734,0.4577106025319566,0.6006425619125366,0.2936170101165771,-0.06939246505498886,0.01272749900817871,-0.08601281046867371,0.0125734806060791,XArbitraryCorrectedZVertical,0.2442363500595093,-0.8049309253692627,-0.1141985058784485,0.5282827615737915,-0.7946794033050537,-0.4418955147266388,0.4151303768157959,-57.53668212890625,-38.60973358154297,11.10470581054688,2
2017-11-27 14:36:06.071 -0800,121,C4D50155-580C-4885-BACB-A13DEF47355A,1511822160.671754,49.27720040328072,-122.9074621092278,343.0549,-1,-1,10,65,-9999,225877.09120675,-0.7814483642578125,-0.3748321533203125,0.428070068359375,225877.09016975,0.2674530124772787,-0.244039565437738,-0.3806386903861913,225877.07616175,0.3289868727568683,-2.057676213548825,0.4541706236136823,0.3816492557525635,-0.08337694406509399,-0.2157947868108749,-0.03598970174789429,0.02767592668533325,-0.03416299819946289,XArbitraryCorrectedZVertical,0.2512721121311188,-0.8043429255485535,-0.1080313846468925,0.527174711227417,-0.7937679290771484,-0.4387171566486359,0.4202104210853577,-57.59822082519531,-38.78423690795898,11.3529052734375,2
2017-11-27 14:36:06.104 -0800,122,C4D50155-580C-4885-BACB-A13DEF47355A,1511822160.671754,49.27720040328072,-122.9074621092278,343.0549,-1,-1,10,65,-9999,225877.12126675,-0.7230377197265625,-0.4030609130859375,0.4401702880859375,225877.09016975,0.2674530124772787,-0.244039565437738,-0.3806386903861913,225877.11125675,0.3457597402094917,-2.072677580878125,0.4604209052165444,0.2783398628234863,-0.1910605877637863,-0.4210965931415558,0.01606088876724243,0.05508875846862793,0.01754772663116455,XArbitraryCorrectedZVertical,0.2586491107940674,-0.8052768111228943,-0.1081802621483803,0.5221264958381653,-0.7849512696266174,-0.4443252086639404,0.4307402074337006,-57.16626739501953,-39.07382202148438,12.03884887695312,2
2017-11-27 14:36:06.131 -0800,123,C4D50155-580C-4885-BACB-A13DEF47355A,1511822160.671754,49.27720040328072,-122.9074621092278,343.0549,-1,-1,10,65,-9999,225877.15132675,-0.72711181640625,-0.4477996826171875,0.45159912109375,225877.12526475,0.2526801915945001,-0.05389545624436957,-0.5027574095395567,225877.14629075,0.3638993865386891,-2.08217437000245,0.470913525038564,0.22409687936306,0.1094594076275826,-0.5128380656242371,0.05475783348083496,0.01235535740852356,-0.004943609237670898,XArbitraryCorrectedZVertical,0.2677980065345764,-0.8038766980171204,-0.1091447472572327,0.5194637775421143,-0.77671217918396,-0.4537005722522736,0.435867041349411,-56.43643951416016,-39.98171997070312,13.05828857421875,2
2017-11-27 14:36:06.179 -0800,124,C4D50155-580C-4885-BACB-A13DEF47355A,1511822160.671754,49.27720040328072,-122.9074621092278,343.0549,-1,-1,10,65,-9999,225877.18138675,-0.5883636474609375,-0.3775634765625,0.467254638671875,225877.16032875,0.2586688419377613,0.4246306494848832,-0.5153179425048064,225877.14629075,0.3638993865386891,-2.08217437000245,0.470913525038564,0.22409687936306,0.1094594076275826,-0.5128380656242371,0.05475783348083496,0.01235535740852356,-0.004943609237670898,XArbitraryCorrectedZVertical,0.2677980065345764,-0.8038766980171204,-0.1091447472572327,0.5194637775421143,-0.77671217918396,-0.4537005722522736,0.435867041349411,-56.43643951416016,-39.98171997070312,13.05828857421875,2
2017-11-27 14:36:06.191 -0800,125,C4D50155-580C-4885-BACB-A13DEF47355A,1511822160.671754,49.27720040328072,-122.9074621092278,343.0549,-1,-1,10,65,-9999,225877.21144575,-0.5221405029296875,-0.3825531005859375,0.375885009765625,225877.19542475,0.07379406327722363,1.016779990490149,-1.001206357067583,225877.18138675,0.3836630777586031,-2.076039468773585,0.4828070670763536,0.2916800677776337,0.7036759257316589,-0.6441595554351807,0.1803110241889954,0.08305689692497253,0.0404813289642334,XArbitraryCorrectedZVertical,0.2786991894245148,-0.7978425025939941,-0.1081822291016579,0.5232208371162415,-0.7745950222015381,-0.4642671942710876,0.428451806306839,-56.13533020019531,-40.71974563598633,12.6688232421875,2
2017-11-27 14:36:06.221 -0800,126,C4D50155-580C-4885-BACB-A13DEF47355A,1511822160.671754,49.27720040328072,-122.9074621092278,343.0549,-1,-1,10,65,-9999,225877.24150575,-0.8044586181640625,-0.6972198486328125,0.6928863525390625,225877.23045875,-0.2497403280671616,1.600243165284012,-1.159988282315852,225877.21642075,0.4038930211860785,-2.050993598486702,0.5130590331242076,-0.2360275089740753,1.114236831665039,-1.218711972236633,0.2542943954467773,0.117401123046875,-0.02504813671112061,XArbitraryCorrectedZVertical,0.2948326468467712,-0.7837068438529968,-0.1119548454880714,0.5348206162452698,-0.7722692489624023,-0.4908447265625,0.4022454023361206,-55.97522735595703,-41.71566390991211,11.89028930664062,2
2017-11-27 14:36:06.264 -0800,127,C4D50155-580C-4885-BACB-A13DEF47355A,1511822160.671754,49.27720040328072,-122.9074621092278,343.0549,-1,-1,10,65,-9999,225877.27156575,-0.793365478515625,-0.6141204833984375,0.32452392578125,225877.26555375,0.2568293965728435,2.756640973818218,-0.4405970991682353,225877.25151575,0.4195316756980394,-1.999087571438264,0.5462024444034395,0.3622820973396301,2.366048097610474,-0.5824767351150513,-0.139553427696228,-0.2615446448326111,0.4863179922103882,XArbitraryCorrectedZVertical,0.3113464713096619,-0.7618438601493835,-0.1135759502649307,0.5562800765037537,-0.7768741846084595,-0.5194459557533264,0.3546853959560394,-54.65319061279297,-43.99018478393555,9.090179443359375,2
2017-11-27 14:36:06.281 -0800,128,C4D50155-580C-4885-BACB-A13DEF47355A,1511822160.671754,49.27720040328072,-122.9074621092278,343.0549,-1,-1,10,65,-9999,225877.30162575,-0.926971435546875,-0.6030426025390625,0.1348876953125,225877.30058775,-0.5977481045649391,1.143640201648291,-1.111155495303723,225877.28658075,0.4347703910242116,-1.920259019608863,0.5603635736465012,-0.1562125682830811,1.822160124778748,-0.7911855578422546,0.03757530450820923,-0.01098626852035522,-0.2123972177505493,XArbitraryCorrectedZVertical,0.3246774077415466,-0.7345186471939087,-0.1024432182312012,0.5867382287979126,-0.7954183220863342,-0.5314942002296448,0.2898661196231842,-54.89143371582031,-45.34294509887695,4.60614013671875,2
2017-11-27 14:36:06.311 -0800,129,C4D50155-580C-4885-BACB-A13DEF47355A,1511822160.671754,49.27720040328072,-122.9074621092278,343.0549,-1,-1,10,65,-9999,225877.33168575,-0.9712371826171875,-0.677032470703125,0.178863525390625,225877.30058775,-0.5977481045649391,1.143640201648291,-1.111155495303723,225877.32167575,0.4280578773618707,-1.875032450190625,0.6022414397866647,-0.6155033111572266,0.950478196144104,-1.117639899253845,-0.1463690996170044,-0.1088629961013794,0.002211213111877441,XArbitraryCorrectedZVertical,0.3350609838962555,-0.7149087190628052,-0.1136636137962341,0.6028347015380859,-0.7857750654220581,-0.5664910078048706,0.2467206716537476,-53.32727432250977,-47.43796157836914,1.222564697265625,2
2017-11-27 14:36:06.341 -0800,130,C4D50155-580C-4885-BACB-A13DEF47355A,1511822160.671754,49.27720040328072,-122.9074621092278,343.0549,-1,-1,10,65,-9999,225877.36174475,-0.9374237060546875,-0.858673095703125,0.21795654296875,225877.33568275,-0.6438157314172387,0.1750871290222784,-1.14731270079151,225877.35670975,0.4153487579952961,-1.863444262491973,0.6479764824141099,-0.7961852550506592,-0.5704379081726074,-1.241636395454407,-0.1971033215522766,-0.173494815826416,-0.2092610597610474,XArbitraryCorrectedZVertical,0.3427205979824066,-0.7053229212760925,-0.1335390210151672,0.6057383418083191,-0.7629491090774536,-0.603574275970459,0.2298756688833237,-52.20016479492188,-48.35501480102539,0.188140869140625,2
2017-11-27 14:36:06.371 -0800,131,C4D50155-580C-4885-BACB-A13DEF47355A,1511822160.671754,49.27720040328072,-122.9074621092278,343.0549,-1,-1,10,65,-9999,225877.39180475,-0.56884765625,-0.725250244140625,0.1442413330078125,225877.37074775,-0.7776723330751284,-0.4199751775833157,-1.065077482123172,225877.35670975,0.4153487579952961,-1.863444262491973,0.6479764824141099,-0.7961852550506592,-0.5704379081726074,-1.241636395454407,-0.1971033215522766,-0.173494815826416,-0.2092610597610474,XArbitraryCorrectedZVertical,0.3427205979824066,-0.7053229212760925,-0.1335390210151672,0.6057383418083191,-0.7629491090774536,-0.603574275970459,0.2298756688833237,-52.20016479492188,-48.35501480102539,0.188140869140625,2
2017-11-27 14:36:06.425 -0800,132,C4D50155-580C-4885-BACB-A13DEF47355A,1511822160.671754,49.27720040328072,-122.9074621092278,343.0549,-1,-1,10,65,-9999,225877.42186475,-0.5495758056640625,-0.7917327880859375,0.3582916259765625,225877.40584275,-0.5101290394368961,-0.01731800393656727,-1.105955939591452,225877.39180475,0.3975213968355437,-1.869107599006838,0.6931665437044882,-0.7136349678039551,-0.478400856256485,-1.181394577026367,0.1622252464294434,-0.09695523977279663,-0.08143472671508789,XArbitraryCorrectedZVertical,0.3472701907157898,-0.7016916275024414,-0.157591313123703,0.601570725440979,-0.7347807288169861,-0.6389761567115784,0.2259354442358017,-49.69402694702148,-50.07346343994141,-0.541412353515625,2
2017-11-27 14:36:06.431 -0800,133,C4D50155-580C-4885-BACB-A13DEF47355A,1511822160.671754,49.27720040328072,-122.9074621092278,343.0549,-1,-1,10,65,-9999,225877.45192475,-0.7525634765625,-0.528839111328125,0.1589813232421875,225877.44087775,-0.5832173650252487,0.1219067315305951,-1.150575073126858,225877.42683875,0.3893105542471136,-1.86441752077438,0.7350099716157958,-0.4786776900291443,0.3748396039009094,-0.9569742679595947,0.1570994853973389,-0.1243120431900024,0.1459063291549683,XArbitraryCorrectedZVertical,0.3550874292850494,-0.6936778426170349,-0.1755463629961014,0.6013298034667969,-0.7095897197723389,-0.6705945730209351,0.2145520597696304,-46.89761734008789,-52.05268096923828,-1.6400146484375,2
2017-11-27 14:36:06.461 -0800,134,C4D50155-580C-4885-BACB-A13DEF47355A,1511822160.671754,49.27720040328072,-122.9074621092278,343.0549,-1,-1,10,65,-9999,225877.48198475,-0.83709716796875,-0.5637664794921875,0.082122802734375,225877.47597275,-0.7210553925128069,-0.8506003363658583,-1.24267730363394,225877.46196475,0.3764721821012708,-1.854151916586191,0.7778777233471418,-0.7163887619972229,-0.4646635055541992,-1.145253658294678,-0.2372204661369324,0.1680014133453369,-0.07099103927612305,XArbitraryCorrectedZVertical,0.3621005415916443,-0.6843953132629395,-0.1941520124673843,0.602064311504364,-0.6834948658943176,-0.7017690539360046,0.199027493596077,-44.49617767333984,-53.588134765625,-3.174163818359375,2
2017-11-27 14:36:06.491 -0800,135,C4D50155-580C-4885-BACB-A13DEF47355A,1511822160.671754,49.27720040328072,-122.9074621092278,343.0549,-1,-1,10,65,-9999,225877.51204475,-0.6510162353515625,-0.6801910400390625,0.2340850830078125,225877.51103675,-0.4836217981590104,-0.6582295581850746,-1.108075815819155,225877.49699875,0.3603499201159244,-1.870958495929914,0.8256872306782382,-0.626917839050293,-0.8456149697303772,-1.242362141609192,-0.1287592053413391,0.1181011199951172,-0.08751273155212402,XArbitraryCorrectedZVertical,0.3663888275623322,-0.6825830936431885,-0.2204219847917557,0.5924052000045776,-0.6472112536430359,-0.7350139617919922,0.2003208994865417,-42.99832916259766,-54.53174209594727,-3.11883544921875,2
2017-11-27 14:36:06.521 -0800,136,C4D50155-580C-4885-BACB-A13DEF47355A,1511822160.671754,49.27720040328072,-122.9074621092278,343.0549,-1,-1,10,65,-9999,225877.54210375,-0.5494232177734375,-0.77264404296875,0.204559326171875,225877.51103675,-0.4836217981590104,-0.6582295581850746,-1.108075815819155,225877.53209475,0.3533280528280086,-1.888765713016503,0.867276005562203,-0.4535309076309204,-0.5185784697532654,-0.9586629867553711,0.07117652893066406,0.0583459734916687,0.003803730010986328,XArbitraryCorrectedZVertical,0.3717194795608521,-0.6803370714187622,-0.2417451143264771,0.5832802653312683,-0.6139316558837891,-0.7625696063041687,0.2020678073167801,-40.11756896972656,-56.03496551513672,-3.39410400390625,2
2017-11-27 14:36:06.552 -0800,137,C4D50155-580C-4885-BACB-A13DEF47355A,1511822160.671754,49.27720040328072,-122.9074621092278,343.0549,-1,-1,10,65,-9999,225877.57216375,-0.5753936767578125,-0.862274169921875,0.157379150390625,225877.54613275,-0.4530492414771188,-0.3924665877355603,-0.7941956497424161,225877.56712875,0.344160733149296,-1.897578717359182,0.8987687653885001,-0.4158779084682465,-0.5295978784561157,-0.7559272646903992,-0.04497087001800537,-0.05525338649749756,-0.01454877853393555,XArbitraryCorrectedZVertical,0.3747513592243195,-0.6777816414833069,-0.2581192553043365,0.5772680640220642,-0.5890623331069946,-0.7825609445571899,0.1996530741453171,-38.18236541748047,-57.24667358398438,-3.728546142578125,2
2017-11-27 14:36:06.582 -0800,138,C4D50155-580C-4885-BACB-A13DEF47355A,1511822160.671754,49.27720040328072,-122.9074621092278,343.0549,-1,-1,10,65,-9999,225877.60222375,-0.5173187255859375,-0.8418121337890625,0.2706146240234375,225877.58116675,-0.3838651100468223,-0.4204649329077813,-0.6270758997533277,225877.56712875,0.344160733149296,-1.897578717359182,0.8987687653885001,-0.4158779084682465,-0.5295978784561157,-0.7559272646903992,-0.04497087001800537,-0.05525338649749756,-0.01454877853393555,XArbitraryCorrectedZVertical,0.3747513592243195,-0.6777816414833069,-0.2581192553043365,0.5772680640220642,-0.5890623331069946,-0.7825609445571899,0.1996530741453171,-38.18236541748047,-57.24667358398438,-3.728546142578125,2
2017-11-27 14:36:06.612 -0800,139,C4D50155-580C-4885-BACB-A13DEF47355A,1511822160.671754,49.27720040328072,-122.9074621092278,343.0549,-1,-1,10,65,-9999,225877.63228375,-0.58697509765625,-0.8278045654296875,0.1702423095703125,225877.61626175,-0.2703790275669487,-0.1258479436278034,-0.5657741925174478,225877.60222375,0.3370489344038509,-1.904809495667307,0.9234264304528607,-0.2456495314836502,-0.07945255935192108,-0.4953885674476624,0.04418540000915527,-0.04711484909057617,0.07905173301696777,XArbitraryCorrectedZVertical,0.3769809305667877,-0.675753116607666,-0.2709447741508484,0.5722957849502563,-0.5691792964935303,-0.7976727485656738,0.1975137889385223,-36.66546630859375,-57.98651885986328,-3.87384033203125,2
2017-11-27 14:36:06.662 -0800,140,C4D50155-580C-4885-BACB-A13DEF47355A,1511822160.671754,49.27720040328072,-122.9074621092278,343.0549,-1,-1,10,65,-9999,225877.66234375,-0.4934234619140625,-0.883026123046875,0.160491943359375,225877.65129575,-0.524343661755194,-0.7735497597076858,-0.5773482906149321,225877.63728875,0.331473136130273,-1.908002474257176,0.945423450363886,-0.4317325949668884,-0.5488941669464111,-0.6031200289726257,-0.03402590751647949,-0.01896703243255615,-0.01997911930084229,XArbitraryCorrectedZVertical,0.379594475030899,-0.6727880835533142,-0.2815198004245758,0.5689473748207092,-0.551835298538208,-0.8107448816299438,0.1934715360403061,-35.91963195800781,-58.26816940307617,-4.250457763671875,2
2017-11-27 14:36:06.672 -0800,141,C4D50155-580C-4885-BACB-A13DEF47355A,1511822160.671754,49.27720040328072,-122.9074621092278,343.0549,-1,-1,10,65,-9999,225877.692386125,-0.520660400390625,-0.87841796875,0.2034912109375,225877.686374125,-0.1745726062996751,-0.3750551068447312,-0.7890067466745057,225877.672367125,0.3179928777598949,-1.921874527626262,0.9705924100308861,-0.315575897693634,-0.5904287099838257,-0.6627557873725891,0.075245201587677,-0.05876696109771729,-0.03914225101470947,XArbitraryCorrectedZVertical,0.3786239624023438,-0.6735379695892334,-0.297519326210022,0.5605024695396423,-0.529743492603302,-0.8252204656600952,0.1940190047025681,-34.62233352661133,-58.91216278076172,-4.29571533203125,2
2017-11-27 14:36:06.702 -0800,142,C4D50155-580C-4885-BACB-A13DEF47355A,1511822166.673137,49.27718244594541,-122.9074698351834,343.1096,-1,-1,10,65,-9999,225877.722446125,-0.5421142578125,-0.87994384765625,0.21600341796875,225877.721439125,-0.1975777907441066,-0.3934237278313347,-0.5416768457099748,225877.707401125,0.3241040443825475,-1.940598598561294,0.9970581532946589,-0.1545364856719971,-0.33706134557724,-0.7548848390579224,-0.07441890239715576,-0.05785775184631348,0.02877211570739746,XArbitraryCorrectedZVertical,0.3835679590702057,-0.6714462041854858,-0.3094331920146942,0.5531514883041382,-0.5054455995559692,-0.8398778438568115,0.195928767323494,-32.99370193481445,-59.54473114013672,-4.0308837890625,2
2017-11-27 14:36:06.732 -0800,143,C4D50155-580C-4885-BACB-A13DEF47355A,1511822166.673137,49.27718244594541,-122.9074698351834,343.1096,-1,-1,10,65,-9999,225877.752506125,-0.467132568359375,-0.8463134765625,0.1606597900390625,225877.721439125,-0.1975777907441066,-0.3934237278313347,-0.5416768457099748,225877.742496125,0.3265069941417538,-1.956066807166227,1.01711851285931,-0.1605938076972961,-0.3280786275863647,-0.3827449381351471,0.03865224123001099,-0.03328418731689453,3.015995025634766e-05,XArbitraryCorrectedZVertical,0.3861657977104187,-0.6704827547073364,-0.3193692564964294,0.5468289256095886,-0.486619770526886,-0.8505964279174805,0.1973422914743423,-31.26220893859863,-60.05613708496094,-4.135833740234375,2
2017-11-27 14:36:06.762 -0800,144,C4D50155-580C-4885-BACB-A13DEF47355A,1511822166.673137,49.27718244594541,-122.9074698351834,343.1096,-1,-1,10,65,-9999,225877.782566125,-0.4924163818359375,-0.825408935546875,0.2061614990234375,225877.756534125,-0.1234207386103052,-0.3185015495163535,-0.3827250107841594,225877.777530125,0.3285077840044422,-1.969204616173572,1.030991064314762,-0.1393280029296875,-0.34086012840271,-0.3823829591274261,-0.04033473134040833,0.02406859397888184,-0.01385724544525146,XArbitraryCorrectedZVertical,0.3875714242458344,-0.6703323721885681,-0.3266389667987823,0.5417007207870483,-0.4730471968650818,-0.8578087687492371,0.199114203453064,-30.23881530761719,-60.81508255004883,-4.187713623046875,2
2017-11-27 14:36:06.792 -0800,145,C4D50155-580C-4885-BACB-A13DEF47355A,1511822166.673137,49.27718244594541,-122.9074698351834,343.1096,-1,-1,10,65,-9999,225877.812626125,-0.44354248046875,-0.7902679443359375,0.2433319091796875,225877.791569125,-0.145865593961384,-0.2612696850583326,-0.3096191083326122,225877.777530125,0.3285077840044422,-1.969204616173572,1.030991064314762,-0.1393280029296875,-0.34086012840271,-0.3823829591274261,-0.04033473134040833,0.02406859397888184,-0.01385724544525146,XArbitraryCorrectedZVertical,0.3875714242458344,-0.6703323721885681,-0.3266389667987823,0.5417007207870483,-0.4730471968650818,-0.8578087687492371,0.199114203453064,-30.23881530761719,-60.81508255004883,-4.187713623046875,2
2017-11-27 14:36:06.822 -0800,146,C4D50155-580C-4885-BACB-A13DEF47355A,1511822166.673137,49.27718244594541,-122.9074698351834,343.1096,-1,-1,10,65,-9999,225877.842685125,-0.52471923828125,-0.79345703125,0.178070068359375,225877.826664125,-0.1120695470960605,-0.03352147495693638,-0.1180755079864071,225877.812626125,0.3283553868398498,-1.97714420341783,1.04186243653177,-0.08763746917247772,-0.08453749120235443,-0.1702330857515335,0.02267405390739441,0.07380998134613037,0.04273748397827148,XArbitraryCorrectedZVertical,0.3884146511554718,-0.6698612570762634,-0.3323544561862946,0.5381913185119629,-0.4628443419933319,-0.8633455634117126,0.1991600841283798,-29.82262992858887,-60.90816497802734,-4.3594970703125,2
2017-11-27 14:36:06.852 -0800,147,C4D50155-580C-4885-BACB-A13DEF47355A,1511822166.673137,49.27718244594541,-122.9074698351834,343.1096,-1,-1,10,65,-9999,225877.872745125,-0.4686279296875,-0.8253631591796875,0.117584228515625,225877.861698125,0.1725784312754238,0.0615357990956979,-0.2455248103776752,225877.847690125,0.3268506679684678,-1.976938090881363,1.047198274598114,-0.03614400327205658,-0.0071933981962502,-0.1637751758098602,-0.06569629907608032,0.07543742656707764,-0.01897120475769043,XArbitraryCorrectedZVertical,0.3890183568000793,-0.6687933206558228,-0.3347469568252563,0.5376002192497253,-0.4586414396762848,-0.8660257458686829,0.1972395777702332,-29.43378829956055,-60.79025650024414,-4.26287841796875,2
2017-11-27 14:36:06.892 -0800,148,C4D50155-580C-4885-BACB-A13DEF47355A,1511822166.673137,49.27718244594541,-122.9074698351834,343.1096,-1,-1,10,65,-9999,225877.902805125,-0.436004638671875,-0.8187103271484375,0.210601806640625,225877.896793125,0.5175898852307531,0.09384926418217433,-0.3666922483896644,225877.882786125,0.347414760136935,-1.993257999537849,1.0521909833974,0.4123914539813995,0.07163820415735245,-0.3286488950252533,0.01292771100997925,0.05704891681671143,-0.08823394775390625,XArbitraryCorrectedZVertical,0.3941535949707031,-0.6679090261459351,-0.3343233466148376,0.5352179408073425,-0.4514043033123016,-0.8685113191604614,0.2029190510511398,-28.72097396850586,-61.22104263305664,-3.983001708984375,2
2017-11-27 14:36:06.914 -0800,149,C4D50155-580C-4885-BACB-A13DEF47355A,1511822166.673137,49.27718244594541,-122.9074698351834,343.1096,-1,-1,10,65,-9999,225877.932865125,-0.4437103271484375,-0.9276885986328125,0.258575439453125,225877.931858125,0.3491276357361557,0.1715685605900658,-0.296235658590528,225877.917820125,0.3899261843325046,-2.02633932054307,1.055655560517347,0.4487951099872589,0.170185774564743,-0.3075335025787354,-0.01023656129837036,0.01571595668792725,0.04625749588012695,XArbitraryCorrectedZVertical,0.4035080671310425,-0.6673716306686401,-0.330909937620163,0.531022310256958,-0.441728800535202,-0.8702234029769897,0.2164073139429092,-28.02116966247559,-61.44259643554688,-2.8817138671875,2
2017-11-27 14:36:06.942 -0800,150,C4D50155-580C-4885-BACB-A13DEF47355A,1511822166.673137,49.27718244594541,-122.9074698351834,343.1096,-1,-1,10,65,-9999,225877.962955125,-0.3720855712890625,-1.003631591796875,0.2882843017578125,225877.931858125,0.3491276357361557,0.1715685605900658,-0.296235658590528,225877.952915125,0.4237040882946038,-2.049391657253994,1.058061322093719,0.4261516630649567,0.2210403680801392,-0.2259383052587509,0.03274735808372498,-0.05349016189575195,-0.0106731653213501,XArbitraryCorrectedZVertical,0.4114095568656921,-0.6659756302833557,-0.3275823295116425,0.528770387172699,-0.4347553849220276,-0.871406078338623,0.22556272149086,-27.60907936096191,-61.64303588867188,-2.441802978515625,2
2017-11-27 14:36:06.977 -0800,151,C4D50155-580C-4885-BACB-A13DEF47355A,1511822166.673137,49.27718244594541,-122.9074698351834,343.1096,-1,-1,10,65,-9999,225877.993015125,-0.435638427734375,-0.9876708984375,0.210784912109375,225877.966953125,0.3668650875444105,0.4269228322351144,-0.09428708786538337,225877.987980125,0.4509373692808106,-2.059733910276741,1.055259499209057,0.3216510117053986,0.357917845249176,-0.08077439665794373,0.005903273820877075,-0.1435673832893372,0.01319193840026855,XArbitraryCorrectedZVertical,0.4183110892772675,-0.6637862920761108,-0.3214235603809357,0.5298868417739868,-0.4345531761646271,-0.8700281977653503,0.2311928123235703,-27.14556884765625,-61.91651916503906,-1.911285400390625,2
2017-11-27 14:36:07.002 -0800,152,C4D50155-580C-4885-BACB-A13DEF47355A,1511822166.673137,49.27718244594541,-122.9074698351834,343.1096,-1,-1,10,65,-9999,225878.023075125,-0.334259033203125,-0.9477691650390625,0.2764129638671875,225878.001987125,0.1973681999663174,0.05169914729338123,-0.09513450572424657,225877.987980125,0.4509373692808106,-2.059733910276741,1.055259499209057,0.3216510117053986,0.357917845249176,-0.08077439665794373,0.005903273820877075,-0.1435673832893372,0.01319193840026855,XArbitraryCorrectedZVertical,0.4183110892772675,-0.6637862920761108,-0.3214235603809357,0.5298868417739868,-0.4345531761646271,-0.8700281977653503,0.2311928123235703,-27.14556884765625,-61.91651916503906,-1.911285400390625,2
2017-11-27 14:36:07.033 -0800,153,C4D50155-580C-4885-BACB-A13DEF47355A,1511822166.673137,49.27718244594541,-122.9074698351834,343.1096,-1,-1,10,65,-9999,225878.053135125,-0.3926849365234375,-0.8560943603515625,0.27044677734375,225878.037082125,0.08224027867440993,0.254189404984248,0.176550003409059,225878.023075125,0.466085896397841,-2.068062225503969,1.053410307024501,0.1537048518657684,0.1914951652288437,0.06142251193523407,0.0980275571346283,-0.08188897371292114,0.04181861877441406,XArbitraryCorrectedZVertical,0.4216993451118469,-0.6632911562919617,-0.3184340000152588,0.5296263098716736,-0.4340260624885559,-0.8691150546073914,0.2355709969997406,-26.9884033203125,-61.93466186523438,-1.784515380859375,2
2017-11-27 14:36:07.065 -0800,154,C4D50155-580C-4885-BACB-A13DEF47355A,1511822166.673137,49.27718244594541,-122.9074698351834,343.1096,-1,-1,10,65,-9999,225878.083195125,-0.4776458740234375,-0.7545166015625,0.236724853515625,225878.072147125,-0.0753256472201282,0.00656495840315433,-0.02051965619906053,225878.058109125,0.4657597082379147,-2.059592450290094,1.04732089034895,-0.01761839911341667,0.1927968114614487,0.1486574560403824,0.05095365643501282,0.006986737251281738,0.03932523727416992,XArbitraryCorrectedZVertical,0.4219177663326263,-0.6626999378204346,-0.3143508732318878,0.532623291015625,-0.4406784176826477,-0.8660870790481567,0.234371617436409,-26.89712905883789,-62.08393096923828,-1.67767333984375,2
2017-11-27 14:36:07.093 -0800,155,C4D50155-580C-4885-BACB-A13DEF47355A,1511822166.673137,49.27718244594541,-122.9074698351834,343.1096,-1,-1,10,65,-9999,225878.113254125,-0.5214996337890625,-0.7417755126953125,0.1945037841796875,225878.107242125,-0.0876704641370815,-0.1013777542677193,-0.1847898238217641,225878.093204125,0.4627432668592525,-2.055972375371716,1.048538485632374,-0.04611865431070328,-0.004134058952331543,-0.08738293498754501,-0.08057242631912231,0.1111409068107605,0.01899850368499756,XArbitraryCorrectedZVertical,0.4216919839382172,-0.662055492401123,-0.3148678243160248,0.5332981944084167,-0.4405915141105652,-0.8666951060295105,0.2322832047939301,-27.03676223754883,-62.00012588500977,-1.663330078125,2
2017-11-27 14:36:07.139 -0800,156,C4D50155-580C-4885-BACB-A13DEF47355A,1511822166.673137,49.27718244594541,-122.9074698351834,343.1096,-1,-1,10,65,-9999,225878.143314125,-0.4733428955078125,-0.792205810546875,0.158477783203125,225878.142277125,0.3178152529034401,0.0997463017839368,-0.4628962796076868,225878.128238125,0.4669700562009482,-2.062184432087854,1.05483109680696,0.06905807554721832,-0.02744576893746853,-0.2575968205928802,-0.07830366492271423,0.1051226854324341,-0.02831685543060303,XArbitraryCorrectedZVertical,0.4231617152690887,-0.661173939704895,-0.3175137639045715,0.5316563844680786,-0.4343153536319733,-0.8698168992996216,0.2324336320161819,-26.65641021728516,-62.18261337280273,-1.946136474609375,2
2017-11-27 14:36:07.153 -0800,157,C4D50155-580C-4885-BACB-A13DEF47355A,1511822166.673137,49.27718244594541,-122.9074698351834,343.1096,-1,-1,10,65,-9999,225878.173374125,-0.489501953125,-0.792022705078125,0.221160888671875,225878.142277125,0.3178152529034401,0.0997463017839368,-0.4628962796076868,225878.163334125,0.503532798078301,-2.091299758569722,1.063598168056538,0.4515623152256012,0.1017307564616203,-0.6362728476524353,-0.09545674920082092,0.07665407657623291,-0.04066765308380127,XArbitraryCorrectedZVertical,0.4320190250873566,-0.6587439775466919,-0.3174879848957062,0.5275488495826721,-0.4207175672054291,-0.8741088509559631,0.2411681264638901,-25.69769287109375,-62.51329040527344,-1.6817626953125,2
2017-11-27 14:36:07.183 -0800,158,C4D50155-580C-4885-BACB-A13DEF47355A,1511822166.673137,49.27718244594541,-122.9074698351834,343.1096,-1,-1,10,65,-9999,225878.203434125,-0.4673614501953125,-0.8485870361328125,0.2447509765625,225878.177372125,0.4820598541796789,0.1954259565833226,-0.8201620030029066,225878.198398125,0.5663415100380427,-2.139931655482852,1.079144835023209,0.5376173257827759,0.2442247867584229,-0.9650923013687134,-0.0670773983001709,0.07599717378616333,-0.01206552982330322,XArbitraryCorrectedZVertical,0.4471666514873505,-0.6534703969955444,-0.3178376257419586,0.5212368369102478,-0.3969729244709015,-0.8815544247627258,0.2539631426334381,-23.33216667175293,-63.27962493896484,-0.602508544921875,2
2017-11-27 14:36:07.226 -0800,159,C4D50155-580C-4885-BACB-A13DEF47355A,1511822166.673137,49.27718244594541,-122.9074698351834,343.1096,-1,-1,10,65,-9999,225878.233494125,-0.442901611328125,-0.9256134033203125,0.2222900390625,225878.212406125,0.5883841638561115,0.357940035783228,-1.087938056920412,225878.198398125,0.5663415100380427,-2.139931655482852,1.079144835023209,0.5376173257827759,0.2442247867584229,-0.9650923013687134,-0.0670773983001709,0.07599717378616333,-0.01206552982330322,XArbitraryCorrectedZVertical,0.4471666514873505,-0.6534703969955444,-0.3178376257419586,0.5212368369102478,-0.3969729244709015,-0.8815544247627258,0.2539631426334381,-23.33216667175293,-63.27962493896484,-0.602508544921875,2
2017-11-27 14:36:07.243 -0800,160,C4D50155-580C-4885-BACB-A13DEF47355A,1511822166.673137,49.27718244594541,-122.9074698351834,343.1096,-1,-1,10,65,-9999,225878.263553125,-0.3415374755859375,-1.054794311523438,0.48345947265625,225878.247501125,0.2479408301185951,0.04467559255051525,-1.115192847516283,225878.233494125,0.649350920059153,-2.203836952651637,1.099254049204318,0.5347373485565186,0.1225481554865837,-1.181333065032959,-0.0761692225933075,-0.03164708614349365,-0.04801344871520996,XArbitraryCorrectedZVertical,0.4664186239242554,-0.6454206705093384,-0.3189405202865601,0.5136663913726807,-0.3655422031879425,-0.8908687233924866,0.2682283520698547,-22.29276275634766,-63.64693069458008,-0.09326171875,2
2017-11-27 14:36:07.273 -0800,161,C4D50155-580C-4885-BACB-A13DEF47355A,1511822166.673137,49.27718244594541,-122.9074698351834,343.1096,-1,-1,10,65,-9999,225878.293613125,-0.2275543212890625,-1.047821044921875,0.4379425048828125,225878.282566125,-0.2355491415664564,0.6950946318906055,-0.4302102382847082,225878.268528125,0.7155786342549076,-2.259333087848997,1.123839596698863,-0.06344827264547348,0.2846851050853729,-0.8803872466087341,-0.02056017518043518,-0.1522799730300903,0.2090358734130859,XArbitraryCorrectedZVertical,0.4811087846755981,-0.6368383169174194,-0.3249835669994354,0.5069983005523682,-0.3330470025539398,-0.9017666578292847,0.2740574181079865,-19.36457824707031,-64.15845489501953,1.16143798828125,2
2017-11-27 14:36:07.303 -0800,162,C4D50155-580C-4885-BACB-A13DEF47355A,1511822166.673137,49.27718244594541,-122.9074698351834,343.1096,-1,-1,10,65,-9999,225878.323673125,-0.225006103515625,-0.8942413330078125,0.1711883544921875,225878.317661125,-0.3219727136811628,0.6223983236147125,0.04766312666136614,225878.303623125,0.7235949384652608,-2.242073533834379,1.140078866254012,-0.259854644536972,1.030918121337891,-0.1175457090139389,0.1183446645736694,-0.1399480104446411,0.08179986476898193,XArbitraryCorrectedZVertical,0.4878252446651459,-0.6257655620574951,-0.3252162039279938,0.5141679644584656,-0.326199859380722,-0.9086664319038391,0.2591120302677155,-17.69366073608398,-64.54814910888672,0.206329345703125,2
2017-11-27 14:36:07.333 -0800,163,C4D50155-580C-4885-BACB-A13DEF47355A,1511822166.673137,49.27718244594541,-122.9074698351834,343.1096,-1,-1,10,65,-9999,225878.353733125,-0.1336517333984375,-0.963287353515625,0.1137847900390625,225878.352695125,-0.3232651457581783,-0.3156716745420353,0.1325844096051589,225878.338657125,0.7005230115591399,-2.200338556348688,1.146479615414908,-0.432413786649704,0.1642112880945206,0.01649043150246143,0.1205011904239655,0.05467653274536133,-0.08431506156921387,XArbitraryCorrectedZVertical,0.4879885613918304,-0.6187007427215576,-0.323561042547226,0.5235218405723572,-0.3320185244083405,-0.9113202691078186,0.241846889257431,-18.09879302978516,-64.35207366943359,-1.13861083984375,2
2017-11-27 14:36:07.381 -0800,164,C4D50155-580C-4885-BACB-A13DEF47355A,1511822166.673137,49.27718244594541,-122.9074698351834,343.1096,-1,-1,10,65,-9999,225878.383793125,-0.171905517578125,-0.9621429443359375,0.1969451904296875,225878.352695125,-0.3232651457581783,-0.3156716745420353,0.1325844096051589,225878.373752125,0.6703334393557482,-2.181741960534836,1.147227784972594,-0.1436724960803986,-0.4111519455909729,0.4873252213001251,0.1722984313964844,-0.09777140617370605,-0.08349347114562988,XArbitraryCorrectedZVertical,0.4817261099815369,-0.6209356188774109,-0.3272629380226135,0.5243743062019348,-0.3359031677246094,-0.9116280078887939,0.235242173075676,-18.18259620666504,-64.26558685302734,-1.560577392578125,2
2017-11-27 14:36:07.393 -0800,165,C4D50155-580C-4885-BACB-A13DEF47355A,1511822166.673137,49.27718244594541,-122.9074698351834,343.1096,-1,-1,10,65,-9999,225878.413852125,-0.4058380126953125,-0.8531646728515625,0.3438873291015625,225878.387790125,-0.07231707413666569,-0.02036439390750891,0.9228103514267028,225878.408817125,0.6212058336587779,-2.138927723310164,1.123711778824472,-0.2768149375915527,0.1856547445058823,1.027633190155029,0.1082616150379181,-0.01966005563735962,0.1732008457183838,XArbitraryCorrectedZVertical,0.4706477224826813,-0.6281442046165466,-0.3207732141017914,0.5298312306404114,-0.3636784553527832,-0.9017114043235779,0.2321488410234451,-19.88980865478516,-64.24659729003906,-1.617919921875,2
