loggingTime(txt),loggingSample(N),identifierForVendor(txt),locationTimestamp_since1970(s),locationLatitude(WGS84),locationLongitude(WGS84),locationAltitude(m),locationSpeed(m/s),locationCourse(°),locationVerticalAccuracy(m),locationHorizontalAccuracy(m),locationFloor(Z),accelerometerTimestamp_sinceReboot(s),accelerometerAccelerationX(G),accelerometerAccelerationY(G),accelerometerAccelerationZ(G),gyroTimestamp_sinceReboot(s),gyroRotationX(rad/s),gyroRotationY(rad/s),gyroRotationZ(rad/s)
2017-11-24 14:37:27.598 -0800,1,C4D50155-580C-4885-BACB-A13DEF47355A,1511563046.994387,49.27910391965051,-122.9164458305918,346.3683,0.2053574,175.0346214068973,3,16,-9999,139652.5119899167,-0.2050628662109375,0.2476806640625,-0.9735870361328125,139652.4808919167,-0.04483564853202902,-0.0424960615143944,0.1001028990538984
2017-11-24 14:37:27.614 -0800,2,C4D50155-580C-4885-BACB-A13DEF47355A,1511563046.994387,49.27910391965051,-122.9164458305918,346.3683,0.2053574,175.0346214068973,3,16,-9999,139652.5450099167,-0.2106781005859375,0.2514495849609375,-0.9642486572265625,139652.5139729167,-0.1311513626225872,-0.1208633050155021,0.1280969831683753
2017-11-24 14:37:27.649 -0800,3,C4D50155-580C-4885-BACB-A13DEF47355A,1511563046.994387,49.27910391965051,-122.9164458305918,346.3683,0.2053574,175.0346214068973,3,16,-9999,139652.5781209167,-0.206787109375,0.254150390625,-0.981719970703125,139652.5470239167,-0.09727435566012525,0.02556954225806878,0.07164649017418373
2017-11-24 14:37:27.681 -0800,4,C4D50155-580C-4885-BACB-A13DEF47355A,1511563046.994387,49.27910391965051,-122.9164458305918,346.3683,0.2053574,175.0346214068973,3,16,-9999,139652.6111409167,-0.2071380615234375,0.25372314453125,-0.9637908935546875,139652.5801049167,-0.009983658294489049,-0.01052854105351926,-0.0384965261893134
2017-11-24 14:37:27.722 -0800,5,C4D50155-580C-4885-BACB-A13DEF47355A,1511563046.994387,49.27910391965051,-122.9164458305918,346.3683,0.2053574,175.0346214068973,3,16,-9999,139652.6442529167,-0.1825714111328125,0.252105712890625,-0.94970703125,139652.6131549167,-0.008475243853068167,0.0966208159286198,-0.03182903608419102
2017-11-24 14:37:27.747 -0800,6,C4D50155-580C-4885-BACB-A13DEF47355A,1511563046.994387,49.27910391965051,-122.9164458305918,346.3683,0.2053574,175.0346214068973,3,16,-9999,139652.6772729167,-0.1924896240234375,0.2549896240234375,-0.944610595703125,139652.6462359167,0.06376033755424108,0.177123648307862,-0.04837951699459746
2017-11-24 14:37:27.781 -0800,7,C4D50155-580C-4885-BACB-A13DEF47355A,1511563046.994387,49.27910391965051,-122.9164458305918,346.3683,0.2053574,175.0346214068973,3,16,-9999,139652.7103839167,-0.2026519775390625,0.2511749267578125,-0.933624267578125,139652.6792869167,0.1060947451904677,0.02092765247806067,0.03710742136472808
2017-11-24 14:37:27.813 -0800,8,C4D50155-580C-4885-BACB-A13DEF47355A,1511563046.994387,49.27910391965051,-122.9164458305918,346.3683,0.2053574,175.0346214068973,3,16,-9999,139652.7434039167,-0.1975250244140625,0.2560272216796875,-0.9270172119140625,139652.7123679167,0.05234736070270651,0.06237709168405393,0.06918306616586044
2017-11-24 14:37:27.847 -0800,9,C4D50155-580C-4885-BACB-A13DEF47355A,1511563046.994387,49.27910391965051,-122.9164458305918,346.3683,0.2053574,175.0346214068973,3,16,-9999,139652.7765159167,-0.208526611328125,0.2561187744140625,-0.9207611083984375,139652.7454179167,0.08645925847331346,0.06671218530648491,-0.03865471795806411
2017-11-24 14:37:27.883 -0800,10,C4D50155-580C-4885-BACB-A13DEF47355A,1511563046.994387,49.27910391965051,-122.9164458305918,346.3683,0.2053574,175.0346214068973,3,16,-9999,139652.8095659167,-0.201751708984375,0.2509613037109375,-0.9170989990234375,139652.7785299167,0.07262147344926174,0.03704963076907335,-0.04855368772988864
2017-11-24 14:37:27.913 -0800,11,C4D50155-580C-4885-BACB-A13DEF47355A,1511563046.994387,49.27910391965051,-122.9164458305918,346.3683,0.2053574,175.0346214068973,3,16,-9999,139652.8426469167,-0.20086669921875,0.254547119140625,-0.9227142333984375,139652.8115499167,-0.043255328741176,0.04370407138485435,-0.06875909092031982
2017-11-24 14:37:27.945 -0800,12,C4D50155-580C-4885-BACB-A13DEF47355A,1511563046.994387,49.27910391965051,-122.9164458305918,346.3683,0.2053574,175.0346214068973,3,16,-9999,139652.8756979167,-0.21014404296875,0.2601776123046875,-0.9325714111328125,139652.8446619167,-0.1118754026525937,-0.0590454771603648,-0.07984689580275572
2017-11-24 14:37:27.979 -0800,13,C4D50155-580C-4885-BACB-A13DEF47355A,1511563046.994387,49.27910391965051,-122.9164458305918,346.3683,0.2053574,175.0346214068973,3,16,-9999,139652.9087789167,-0.20684814453125,0.274444580078125,-0.9413299560546875,139652.8776819167,-0.1545634780815828,-0.03243730207716512,-0.07206354120089013
2017-11-24 14:37:28.012 -0800,14,C4D50155-580C-4885-BACB-A13DEF47355A,1511563046.994387,49.27910391965051,-122.9164458305918,346.3683,0.2053574,175.0346214068973,3,16,-9999,139652.9418299167,-0.1950836181640625,0.2653350830078125,-0.9433135986328125,139652.9107929167,-0.07064008159824278,-0.01878007937502077,-0.1045120285546336
2017-11-24 14:37:28.047 -0800,15,C4D50155-580C-4885-BACB-A13DEF47355A,1511563046.994387,49.27910391965051,-122.9164458305918,346.3683,0.2053574,175.0346214068973,3,16,-9999,139652.9749109167,-0.2030792236328125,0.2792816162109375,-0.9490203857421875,139652.9438129167,-0.02556528120032465,0.006594519491254209,-0.1110623395717925
2017-11-24 14:37:28.078 -0800,16,C4D50155-580C-4885-BACB-A13DEF47355A,1511563046.994387,49.27910391965051,-122.9164458305918,346.3683,0.2053574,175.0346214068973,3,16,-9999,139653.0079609167,-0.2159881591796875,0.2915802001953125,-0.959197998046875,139652.9769249167,-0.04293068940429533,-0.081503115684676,-0.06480110090824405
2017-11-24 14:37:28.132 -0800,17,C4D50155-580C-4885-BACB-A13DEF47355A,1511563046.994387,49.27910391965051,-122.9164458305918,346.3683,0.2053574,175.0346214068973,3,16,-9999,139653.0410419167,-0.2298736572265625,0.287933349609375,-0.962066650390625,139653.0099449167,-0.00518730517125634,-0.1124823370650227,0.01664901787073936
2017-11-24 14:37:28.144 -0800,18,C4D50155-580C-4885-BACB-A13DEF47355A,1511563046.994387,49.27910391965051,-122.9164458305918,346.3683,0.2053574,175.0346214068973,3,16,-9999,139653.0740929167,-0.2582855224609375,0.3075714111328125,-0.99005126953125,139653.0430559167,0.0329270574016307,-0.1275241372178993,0.08325520936583913
2017-11-24 14:37:28.178 -0800,19,C4D50155-580C-4885-BACB-A13DEF47355A,1511563047.994384,49.27910035684135,-122.9164442312871,346.3529,0.1352377,176.5046420408241,3,16,-9999,139653.1071739167,-0.303009033203125,0.3017578125,-1.022109985351562,139653.0760759167,-0.05818634139270525,-0.3183433577476028,0.1076987671150224
2017-11-24 14:37:28.210 -0800,20,C4D50155-580C-4885-BACB-A13DEF47355A,1511563047.994384,49.27910035684135,-122.9164442312871,346.3529,0.1352377,176.5046420408241,3,16,-9999,139653.1402239167,-0.3336029052734375,0.3263092041015625,-1.054763793945312,139653.1091879167,-0.188180560521653,-0.2660729624003996,0.1128668975264302
2017-11-24 14:37:28.244 -0800,21,C4D50155-580C-4885-BACB-A13DEF47355A,1511563047.994384,49.27910035684135,-122.9164442312871,346.3529,0.1352377,176.5046420408241,3,16,-9999,139653.1733049167,-0.35125732421875,0.329925537109375,-1.067413330078125,139653.1422079167,-0.2090320465925374,-0.2679377077956731,-0.02365313153764776
2017-11-24 14:37:28.281 -0800,22,C4D50155-580C-4885-BACB-A13DEF47355A,1511563047.994384,49.27910035684135,-122.9164442312871,346.3529,0.1352377,176.5046420408241,3,16,-9999,139653.2063559167,-0.34930419921875,0.3264923095703125,-1.080947875976562,139653.1753199167,-0.2107391328512782,-0.2411289966823904,-0.2044178536878661
2017-11-24 14:37:28.310 -0800,23,C4D50155-580C-4885-BACB-A13DEF47355A,1511563047.994384,49.27910035684135,-122.9164442312871,346.3529,0.1352377,176.5046420408241,3,16,-9999,139653.2394369167,-0.3583526611328125,0.37652587890625,-1.157073974609375,139653.2083399167,-0.2281953548484206,-0.08911789218953957,-0.3639012555672613
2017-11-24 14:37:28.342 -0800,24,C4D50155-580C-4885-BACB-A13DEF47355A,1511563047.994384,49.27910035684135,-122.9164442312871,346.3529,0.1352377,176.5046420408241,3,16,-9999,139653.2724865417,-0.411773681640625,0.4019622802734375,-1.122024536132812,139653.2414509167,-0.4423281538767868,-0.1414737750077343,-0.5062424221420344
2017-11-24 14:37:28.376 -0800,25,C4D50155-580C-4885-BACB-A13DEF47355A,1511563047.994384,49.27910035684135,-122.9164442312871,346.3529,0.1352377,176.5046420408241,3,16,-9999,139653.3055675417,-0.41448974609375,0.4028778076171875,-1.110946655273438,139653.2745005417,-0.05512663561631321,-0.09495820446008334,-0.2660636413365843
2017-11-24 14:37:28.408 -0800,26,C4D50155-580C-4885-BACB-A13DEF47355A,1511563047.994384,49.27910035684135,-122.9164442312871,346.3529,0.1352377,176.5046420408241,3,16,-9999,139653.3386175417,-0.44903564453125,0.3695068359375,-1.1251220703125,139653.3075815417,0.3212121148738362,-0.003548129520312569,-0.2248549518931342
2017-11-24 14:37:28.447 -0800,27,C4D50155-580C-4885-BACB-A13DEF47355A,1511563047.994384,49.27910035684135,-122.9164442312871,346.3529,0.1352377,176.5046420408241,3,16,-9999,139653.3716985417,-0.3871917724609375,0.3478851318359375,-1.088638305664062,139653.3406315417,0.7067486248207921,-0.3107078085862366,-0.4386183704783064
2017-11-24 14:37:28.474 -0800,28,C4D50155-580C-4885-BACB-A13DEF47355A,1511563047.994384,49.27910035684135,-122.9164442312871,346.3529,0.1352377,176.5046420408241,3,16,-9999,139653.4047495417,-0.37811279296875,0.309722900390625,-1.064300537109375,139653.3737125417,0.6458168306603242,-0.2771911273192624,-0.7555281486111196
2017-11-24 14:37:28.511 -0800,29,C4D50155-580C-4885-BACB-A13DEF47355A,1511563047.994384,49.27910035684135,-122.9164442312871,346.3529,0.1352377,176.5046420408241,3,16,-9999,139653.4378305417,-0.295989990234375,0.2975006103515625,-1.012283325195312,139653.4067635417,-0.03471616902194592,0.287495962841215,-0.6104066418583037
2017-11-24 14:37:28.541 -0800,30,C4D50155-580C-4885-BACB-A13DEF47355A,1511563047.994384,49.27910035684135,-122.9164442312871,346.3529,0.1352377,176.5046420408241,3,16,-9999,139653.4708805417,-0.267852783203125,0.278167724609375,-1.040557861328125,139653.4398445417,0.03992691001079497,-0.1284157635508578,-0.7227632777198747
2017-11-24 14:37:28.574 -0800,31,C4D50155-580C-4885-BACB-A13DEF47355A,1511563047.994384,49.27910035684135,-122.9164442312871,346.3529,0.1352377,176.5046420408241,3,16,-9999,139653.5039615417,-0.28570556640625,0.220733642578125,-1.057327270507812,139653.4728955417,0.156753661762064,-0.7292560644574879,-0.6944022100071848
2017-11-24 14:37:28.612 -0800,32,C4D50155-580C-4885-BACB-A13DEF47355A,1511563047.994384,49.27910035684135,-122.9164442312871,346.3529,0.1352377,176.5046420408241,3,16,-9999,139653.5370125417,-0.2910614013671875,0.1870880126953125,-1.087371826171875,139653.5059765417,-0.2646708080864729,0.1083837321473908,-0.4098301317267679
2017-11-24 14:37:28.641 -0800,33,C4D50155-580C-4885-BACB-A13DEF47355A,1511563047.994384,49.27910035684135,-122.9164442312871,346.3529,0.1352377,176.5046420408241,3,16,-9999,139653.5700935417,-0.275360107421875,0.1357421875,-1.1036376953125,139653.5390265417,-0.3969241867681348,0.5883998765065429,-0.5015153112071438
2017-11-24 14:37:28.694 -0800,34,C4D50155-580C-4885-BACB-A13DEF47355A,1511563047.994384,49.27910035684135,-122.9164442312871,346.3529,0.1352377,176.5046420408241,3,16,-9999,139653.6031445417,-0.2858428955078125,0.1058807373046875,-1.146636962890625,139653.5721075417,-0.04934677710251423,0.2399129973286602,-0.694809673653967
2017-11-24 14:37:28.707 -0800,35,C4D50155-580C-4885-BACB-A13DEF47355A,1511563047.994384,49.27910035684135,-122.9164442312871,346.3529,0.1352377,176.5046420408241,3,16,-9999,139653.6362255417,-0.255645751953125,0.1034698486328125,-1.109619140625,139653.6051585417,-0.2085936902771104,0.8834618800046731,-0.8355209856416116
2017-11-24 14:37:28.739 -0800,36,C4D50155-580C-4885-BACB-A13DEF47355A,1511563047.994384,49.27910035684135,-122.9164442312871,346.3529,0.1352377,176.5046420408241,3,16,-9999,139653.6692755417,-0.2444000244140625,0.0430755615234375,-1.030731201171875,139653.6382395417,-0.05979222753002302,1.870012062645223,-0.9207895447915506
2017-11-24 14:37:28.773 -0800,37,C4D50155-580C-4885-BACB-A13DEF47355A,1511563047.994384,49.27910035684135,-122.9164442312871,346.3529,0.1352377,176.5046420408241,3,16,-9999,139653.7023875417,-0.14776611328125,0.0386505126953125,-0.91815185546875,139653.6712895417,0.9868931977889525,1.093765053385505,-0.6353109264760707
2017-11-24 14:37:28.805 -0800,38,C4D50155-580C-4885-BACB-A13DEF47355A,1511563047.994384,49.27910035684135,-122.9164442312871,346.3529,0.1352377,176.5046420408241,3,16,-9999,139653.7354075417,-0.1210784912109375,0.0028839111328125,-0.8668975830078125,139653.7043705417,1.311730673854713,0.9256839022428983,-0.8168916411842894
2017-11-24 14:37:28.846 -0800,39,C4D50155-580C-4885-BACB-A13DEF47355A,1511563047.994384,49.27910035684135,-122.9164442312871,346.3529,0.1352377,176.5046420408241,3,16,-9999,139653.7685185417,-0.0293426513671875,-0.001953125,-0.7833709716796875,139653.7374215417,1.12395012012879,1.326995646906939,-0.7066612731370376
2017-11-24 14:37:28.871 -0800,40,C4D50155-580C-4885-BACB-A13DEF47355A,1511563047.994384,49.27910035684135,-122.9164442312871,346.3529,0.1352377,176.5046420408241,3,16,-9999,139653.8015385417,0.0067291259765625,-0.0290374755859375,-0.7170867919921875,139653.7705025417,1.327297649374554,0.9445334901223701,-0.6783012706887838
2017-11-24 14:37:28.905 -0800,41,C4D50155-580C-4885-BACB-A13DEF47355A,1511563047.994384,49.27910035684135,-122.9164442312871,346.3529,0.1352377,176.5046420408241,3,16,-9999,139653.8346505417,-0.0023193359375,-0.084014892578125,-0.681549072265625,139653.8035525417,1.390848928783224,0.7000824662962148,-0.500109162151582
2017-11-24 14:37:28.938 -0800,42,C4D50155-580C-4885-BACB-A13DEF47355A,1511563047.994384,49.27910035684135,-122.9164442312871,346.3529,0.1352377,176.5046420408241,3,16,-9999,139653.8676705417,0.008636474609375,-0.111968994140625,-0.647491455078125,139653.8366345417,1.213813697423552,1.045884879095298,-0.1877459326317521
2017-11-24 14:37:28.971 -0800,43,C4D50155-580C-4885-BACB-A13DEF47355A,1511563047.994384,49.27910035684135,-122.9164442312871,346.3529,0.1352377,176.5046420408241,3,16,-9999,139653.9007815417,0.040496826171875,-0.1401214599609375,-0.642974853515625,139653.8696845417,1.438402066891569,0.7120682890982255,-0.08549332994594172
2017-11-24 14:37:29.009 -0800,44,C4D50155-580C-4885-BACB-A13DEF47355A,1511563047.994384,49.27910035684135,-122.9164442312871,346.3529,0.1352377,176.5046420408241,3,16,-9999,139653.9338015417,0.025970458984375,-0.1919708251953125,-0.6551971435546875,139653.9027655417,1.395533162824564,0.5838195057477157,-0.1110559479851763
2017-11-24 14:37:29.038 -0800,45,C4D50155-580C-4885-BACB-A13DEF47355A,1511563047.994384,49.27910035684135,-122.9164442312871,346.3529,0.1352377,176.5046420408241,3,16,-9999,139653.9669135417,-0.011871337890625,-0.2177734375,-0.666168212890625,139653.9358165417,0.9768837068318896,0.9207456026335643,0.1128024490280503
2017-11-24 14:37:29.070 -0800,46,C4D50155-580C-4885-BACB-A13DEF47355A,1511563047.994384,49.27910035684135,-122.9164442312871,346.3529,0.1352377,176.5046420408241,3,16,-9999,139653.9999335417,-0.014312744140625,-0.244598388671875,-0.671966552734375,139653.9688975417,0.9705642918812406,0.5150308537392959,0.3839671091165723
2017-11-24 14:37:29.104 -0800,47,C4D50155-580C-4885-BACB-A13DEF47355A,1511563047.994384,49.27910035684135,-122.9164442312871,346.3529,0.1352377,176.5046420408241,3,16,-9999,139654.0330455417,-0.0905303955078125,-0.3277435302734375,-0.7107696533203125,139654.0019475417,1.00154564379046,0.3846009414560112,0.2906355634503094
2017-11-24 14:37:29.136 -0800,48,C4D50155-580C-4885-BACB-A13DEF47355A,1511563047.994384,49.27910035684135,-122.9164442312871,346.3529,0.1352377,176.5046420408241,3,16,-9999,139654.0660655417,-0.032806396484375,-0.38482666015625,-0.8095245361328125,139654.0350285417,0.7325743631757267,0.1621289861062799,0.4552902915344205
2017-11-24 14:37:29.170 -0800,49,C4D50155-580C-4885-BACB-A13DEF47355A,1511563048.994364,49.27909666282935,-122.9164475277903,346.3755,0.08573613,171.1649504118699,3,16,-9999,139654.0991765417,-0.0688323974609375,-0.381500244140625,-0.753204345703125,139654.0680795417,0.00913437622286278,-0.1626666783303669,0.2007810409032539
2017-11-24 14:37:29.202 -0800,50,C4D50155-580C-4885-BACB-A13DEF47355A,1511563048.994364,49.27909666282935,-122.9164475277903,346.3755,0.08573613,171.1649504118699,3,16,-9999,139654.1321965417,-0.257354736328125,-0.5058441162109375,-0.799957275390625,139654.1011605417,-0.1438213515086392,-0.3999247703683271,0.154840979467169
2017-11-24 14:37:29.244 -0800,51,C4D50155-580C-4885-BACB-A13DEF47355A,1511563048.994364,49.27909666282935,-122.9164475277903,346.3755,0.08573613,171.1649504118699,3,16,-9999,139654.1653085417,-0.2894439697265625,-0.6007232666015625,-1.089630126953125,139654.1342105417,-0.7260964901402178,1.777640852868043,0.07595015849575178
2017-11-24 14:37:29.268 -0800,52,C4D50155-580C-4885-BACB-A13DEF47355A,1511563048.994364,49.27909666282935,-122.9164475277903,346.3755,0.08573613,171.1649504118699,3,16,-9999,139654.1983585417,0.2729644775390625,-0.38330078125,-0.806549072265625,139654.1672915417,0.5406616487024365,0.4964561040843203,-1.396905756050391
2017-11-24 14:37:29.302 -0800,53,C4D50155-580C-4885-BACB-A13DEF47355A,1511563048.994364,49.27909666282935,-122.9164475277903,346.3755,0.08573613,171.1649504118699,3,16,-9999,139654.2314395417,0.139678955078125,-0.378021240234375,-0.896697998046875,139654.2003425417,1.066654606120717,-0.5799230347568207,-1.138791117935475
2017-11-24 14:37:29.334 -0800,54,C4D50155-580C-4885-BACB-A13DEF47355A,1511563048.994364,49.27909666282935,-122.9164475277903,346.3755,0.08573613,171.1649504118699,3,16,-9999,139654.2644905417,-0.363555908203125,-0.725494384765625,-0.66229248046875,139654.2334545417,0.8873775257554165,-1.581472673288915,-0.9158648273037762
2017-11-24 14:37:29.368 -0800,55,C4D50155-580C-4885-BACB-A13DEF47355A,1511563048.994364,49.27909666282935,-122.9164475277903,346.3755,0.08573613,171.1649504118699,3,16,-9999,139654.297548875,-0.0008697509765625,-0.614654541015625,-0.878662109375,139654.2664745417,0.6714337771857964,-0.1366537197507999,-1.104612641137616
2017-11-24 14:37:29.406 -0800,56,C4D50155-580C-4885-BACB-A13DEF47355A,1511563048.994364,49.27909666282935,-122.9164475277903,346.3755,0.08573613,171.1649504118699,3,16,-9999,139654.330599875,0.2259368896484375,-0.563934326171875,-1.144256591796875,139654.299562875,0.480616687184965,1.214741010115118,-1.294184969644945
2017-11-24 14:37:29.434 -0800,57,C4D50155-580C-4885-BACB-A13DEF47355A,1511563048.994364,49.27909666282935,-122.9164475277903,346.3755,0.08573613,171.1649504118699,3,16,-9999,139654.363680875,0.3553009033203125,-0.3783111572265625,-1.118743896484375,139654.332582875,0.5265199969980068,0.2720874454062345,-1.057383077101715
2017-11-24 14:37:29.466 -0800,58,C4D50155-580C-4885-BACB-A13DEF47355A,1511563048.994364,49.27909666282935,-122.9164475277903,346.3755,0.08573613,171.1649504118699,3,16,-9999,139654.396730875,0.185882568359375,-0.498321533203125,-0.8812255859375,139654.365694875,0.5653600709679404,-0.9977202792006696,-1.263924002810592
2017-11-24 14:37:29.500 -0800,59,C4D50155-580C-4885-BACB-A13DEF47355A,1511563048.994364,49.27909666282935,-122.9164475277903,346.3755,0.08573613,171.1649504118699,3,16,-9999,139654.429811875,0.0967864990234375,-0.3015289306640625,-0.8979949951171875,139654.398714875,0.5754814146907865,-0.456349697016054,-0.7540698015981921
2017-11-24 14:37:29.533 -0800,60,C4D50155-580C-4885-BACB-A13DEF47355A,1511563048.994364,49.27909666282935,-122.9164475277903,346.3755,0.08573613,171.1649504118699,3,16,-9999,139654.462862875,0.0500946044921875,-0.2966156005859375,-0.872894287109375,139654.431825875,0.4629511407261424,-0.3593717511852546,-0.8675849125339476
2017-11-24 14:37:29.569 -0800,61,C4D50155-580C-4885-BACB-A13DEF47355A,1511563048.994364,49.27909666282935,-122.9164475277903,346.3755,0.08573613,171.1649504118699,3,16,-9999,139654.495943875,-0.031005859375,-0.4060516357421875,-0.8285369873046875,139654.464845875,0.2696477235316129,-0.4375248765347199,-0.8245514251115752
2017-11-24 14:37:29.599 -0800,62,C4D50155-580C-4885-BACB-A13DEF47355A,1511563048.994364,49.27909666282935,-122.9164475277903,346.3755,0.08573613,171.1649504118699,3,16,-9999,139654.528993875,0.0074615478515625,-0.4225006103515625,-0.8401641845703125,139654.497957875,-0.1388596160817125,0.04887646285400624,-0.5320798784057652
2017-11-24 14:37:29.649 -0800,63,C4D50155-580C-4885-BACB-A13DEF47355A,1511563048.994364,49.27909666282935,-122.9164475277903,346.3755,0.08573613,171.1649504118699,3,16,-9999,139654.562074875,0.0444793701171875,-0.3491363525390625,-0.8717041015625,139654.530977875,-0.2074581183883006,0.4357687881119216,-0.1878348822121607
2017-11-24 14:37:29.665 -0800,64,C4D50155-580C-4885-BACB-A13DEF47355A,1511563048.994364,49.27909666282935,-122.9164475277903,346.3755,0.08573613,171.1649504118699,3,16,-9999,139654.595125875,0.0298309326171875,-0.345916748046875,-0.751708984375,139654.564089875,-0.2349182387042166,-0.09265243958829272,-0.1268697985380668
2017-11-24 14:37:29.699 -0800,65,C4D50155-580C-4885-BACB-A13DEF47355A,1511563048.994364,49.27909666282935,-122.9164475277903,346.3755,0.08573613,171.1649504118699,3,16,-9999,139654.628206875,-0.0210723876953125,-0.3854522705078125,-0.5622100830078125,139654.597109875,-0.0798831147935808,-0.6551568029193412,-0.2434118583688063
2017-11-24 14:37:29.731 -0800,66,C4D50155-580C-4885-BACB-A13DEF47355A,1511563048.994364,49.27909666282935,-122.9164475277903,346.3755,0.08573613,171.1649504118699,3,16,-9999,139654.661257875,-0.017913818359375,-0.309417724609375,-0.6439666748046875,139654.630220875,0.1936166049387228,-0.4807415894400897,-0.2134752645552256
2017-11-24 14:37:29.765 -0800,67,C4D50155-580C-4885-BACB-A13DEF47355A,1511563048.994364,49.27909666282935,-122.9164475277903,346.3755,0.08573613,171.1649504118699,3,16,-9999,139654.694338875,0.115875244140625,-0.3985443115234375,-0.8536529541015625,139654.663240875,0.08294468478273589,-0.03400803448809386,-0.7695986939144442
2017-11-24 14:37:29.813 -0800,68,C4D50155-580C-4885-BACB-A13DEF47355A,1511563048.994364,49.27909666282935,-122.9164475277903,346.3755,0.08573613,171.1649504118699,3,16,-9999,139654.727388875,0.227020263671875,-0.44464111328125,-0.8892669677734375,139654.696352875,0.2329962353455065,0.003089533180600924,-0.9602959416662221
2017-11-24 14:37:29.831 -0800,69,C4D50155-580C-4885-BACB-A13DEF47355A,1511563048.994364,49.27909666282935,-122.9164475277903,346.3755,0.08573613,171.1649504118699,3,16,-9999,139654.760469875,0.321807861328125,-0.3997955322265625,-1.158859252929688,139654.729402875,0.08706645920185152,0.7081118969828037,-0.3912471262724129
2017-11-24 14:37:29.863 -0800,70,C4D50155-580C-4885-BACB-A13DEF47355A,1511563048.994364,49.27909666282935,-122.9164475277903,346.3755,0.08573613,171.1649504118699,3,16,-9999,139654.793520875,0.465057373046875,-0.35992431640625,-1.414703369140625,139654.762483875,-0.3769187869755686,1.277360982090587,-0.07620369143152732
2017-11-24 14:37:29.897 -0800,71,C4D50155-580C-4885-BACB-A13DEF47355A,1511563048.994364,49.27909666282935,-122.9164475277903,346.3755,0.08573613,171.1649504118699,3,16,-9999,139654.826601875,0.410736083984375,-0.3300018310546875,-1.3177490234375,139654.795534875,-0.8906918297320201,0.3779832524632733,0.423682297820706
2017-11-24 14:37:29.929 -0800,72,C4D50155-580C-4885-BACB-A13DEF47355A,1511563048.994364,49.27909666282935,-122.9164475277903,346.3755,0.08573613,171.1649504118699,3,16,-9999,139654.859651875,0.318115234375,-0.290069580078125,-1.060775756835938,139654.828615875,-0.6347346184161775,-0.2002268370804084,0.7131039924461573
2017-11-24 14:37:29.965 -0800,73,C4D50155-580C-4885-BACB-A13DEF47355A,1511563048.994364,49.27909666282935,-122.9164475277903,346.3755,0.08573613,171.1649504118699,3,16,-9999,139654.892732875,0.347320556640625,-0.2648468017578125,-1.1416015625,139654.861665875,0.1294424121510833,0.5372256382640163,0.9608536075984847
2017-11-24 14:37:29.995 -0800,74,C4D50155-580C-4885-BACB-A13DEF47355A,1511563048.994364,49.27909666282935,-122.9164475277903,346.3755,0.08573613,171.1649504118699,3,16,-9999,139654.925783875,0.3904266357421875,-0.2527618408203125,-1.243057250976562,139654.894747875,0.05693758515756709,1.08269322746961,0.9980526417047115
2017-11-24 14:37:30.030 -0800,75,C4D50155-580C-4885-BACB-A13DEF47355A,1511563048.994364,49.27909666282935,-122.9164475277903,346.3755,0.08573613,171.1649504118699,3,16,-9999,139654.958864875,0.38043212890625,-0.301910400390625,-1.13067626953125,139654.927797875,-0.5440933980831126,0.8890273540507206,0.8503468034300827
2017-11-24 14:37:30.061 -0800,76,C4D50155-580C-4885-BACB-A13DEF47355A,1511563048.994364,49.27909666282935,-122.9164475277903,346.3755,0.08573613,171.1649504118699,3,16,-9999,139654.991914875,0.3170928955078125,-0.2271728515625,-1.0023193359375,139654.960878875,-0.9891438352261784,0.6688939204541879,1.12767614880992
2017-11-24 14:37:30.096 -0800,77,C4D50155-580C-4885-BACB-A13DEF47355A,1511563048.994364,49.27909666282935,-122.9164475277903,346.3755,0.08573613,171.1649504118699,3,16,-9999,139655.024996875,0.238311767578125,-0.22296142578125,-0.8497772216796875,139654.993929875,-0.9696990308430739,0.4122125956379528,1.044461952124868
2017-11-24 14:37:30.129 -0800,78,C4D50155-580C-4885-BACB-A13DEF47355A,1511563048.994364,49.27909666282935,-122.9164475277903,346.3755,0.08573613,171.1649504118699,3,16,-9999,139655.058046875,0.1889801025390625,-0.2462158203125,-0.7012939453125,139655.027010875,-0.8002804402010291,0.2242687901372078,0.8939933505353914
2017-11-24 14:37:30.162 -0800,79,C4D50155-580C-4885-BACB-A13DEF47355A,1511563049.994363,49.27909511801446,-122.9164490449329,346.3795,0.1547954,164.5896912224387,3,16,-9999,139655.091127875,0.1240997314453125,-0.303375244140625,-0.625274658203125,139655.060060875,-0.1434820647857631,0.5190152090461635,0.7781580936579588
2017-11-24 14:37:30.199 -0800,80,C4D50155-580C-4885-BACB-A13DEF47355A,1511563049.994363,49.27909511801446,-122.9164490449329,346.3795,0.1547954,164.5896912224387,3,16,-9999,139655.124178875,0.087188720703125,-0.3238372802734375,-0.5899505615234375,139655.093141875,0.5763187125375074,0.6639148744801757,0.7290637842267842
2017-11-24 14:37:30.228 -0800,81,C4D50155-580C-4885-BACB-A13DEF47355A,1511563049.994363,49.27909511801446,-122.9164490449329,346.3795,0.1547954,164.5896912224387,3,16,-9999,139655.157259875,0.06854248046875,-0.3730010986328125,-0.5191192626953125,139655.126192875,0.2667986737974462,0.4271121829886191,0.6132295926137877
2017-11-24 14:37:30.260 -0800,82,C4D50155-580C-4885-BACB-A13DEF47355A,1511563049.994363,49.27909511801446,-122.9164490449329,346.3795,0.1547954,164.5896912224387,3,16,-9999,139655.190309875,0.0826568603515625,-0.436126708984375,-0.51123046875,139655.159273875,-0.02843350569433999,0.4303415321264492,0.3206312794400899
2017-11-24 14:37:30.294 -0800,83,C4D50155-580C-4885-BACB-A13DEF47355A,1511563049.994363,49.27909511801446,-122.9164490449329,346.3795,0.1547954,164.5896912224387,3,16,-9999,139655.223421875,0.11322021484375,-0.4927215576171875,-0.5812835693359375,139655.192323875,0.3072888423787929,0.5716826817118975,0.3792895329779571
2017-11-24 14:37:30.326 -0800,84,C4D50155-580C-4885-BACB-A13DEF47355A,1511563049.994363,49.27909511801446,-122.9164490449329,346.3795,0.1547954,164.5896912224387,3,16,-9999,139655.256441875,0.114044189453125,-0.4279022216796875,-0.6499481201171875,139655.225404875,0.4855653731225502,0.3934956331807669,0.7682111869865129
2017-11-24 14:37:30.360 -0800,85,C4D50155-580C-4885-BACB-A13DEF47355A,1511563049.994363,49.27909511801446,-122.9164490449329,346.3795,0.1547954,164.5896912224387,3,16,-9999,139655.2895602917,0.0991058349609375,-0.5192413330078125,-0.70574951171875,139655.258455875,0.4902703798203932,0.05350556946078198,0.3750401931426267
2017-11-24 14:37:30.392 -0800,86,C4D50155-580C-4885-BACB-A13DEF47355A,1511563049.994363,49.27909511801446,-122.9164490449329,346.3795,0.1547954,164.5896912224387,3,16,-9999,139655.3225802917,0.085723876953125,-0.6647796630859375,-0.7828216552734375,139655.2915442917,0.6733938637480947,-0.03249642425336488,0.1506246628293556
2017-11-24 14:37:30.426 -0800,87,C4D50155-580C-4885-BACB-A13DEF47355A,1511563049.994363,49.27909511801446,-122.9164490449329,346.3795,0.1547954,164.5896912224387,3,16,-9999,139655.3556922917,0.106689453125,-0.727386474609375,-0.91876220703125,139655.3245952917,0.7944329373955421,0.04859443409456685,0.3700148081656472
2017-11-24 14:37:30.458 -0800,88,C4D50155-580C-4885-BACB-A13DEF47355A,1511563049.994363,49.27909511801446,-122.9164490449329,346.3795,0.1547954,164.5896912224387,3,16,-9999,139655.3887122917,0.073028564453125,-0.8535919189453125,-1.10699462890625,139655.3576762917,0.4089233253755959,-0.07024992849854618,0.2434890900404186
2017-11-24 14:37:30.492 -0800,89,C4D50155-580C-4885-BACB-A13DEF47355A,1511563049.994363,49.27909511801446,-122.9164490449329,346.3795,0.1547954,164.5896912224387,3,16,-9999,139655.4218242917,0.11676025390625,-0.751220703125,-1.310745239257812,139655.3907262917,-0.9820968446657198,-0.3694001505860569,0.1436754102809028
2017-11-24 14:37:30.532 -0800,90,C4D50155-580C-4885-BACB-A13DEF47355A,1511563049.994363,49.27909511801446,-122.9164490449329,346.3795,0.1547954,164.5896912224387,3,16,-9999,139655.4548442917,0.1891326904296875,-0.5541839599609375,-1.28314208984375,139655.4238072917,-1.505422646252286,-1.153014262369261,-0.1018611180055687
2017-11-24 14:37:30.559 -0800,91,C4D50155-580C-4885-BACB-A13DEF47355A,1511563049.994363,49.27909511801446,-122.9164490449329,346.3795,0.1547954,164.5896912224387,3,16,-9999,139655.4879552917,0.1225128173828125,-0.4521636962890625,-1.108413696289062,139655.4568582917,0.07591447213714472,-1.65243446474684,-0.5194527664132635
2017-11-24 14:37:30.591 -0800,92,C4D50155-580C-4885-BACB-A13DEF47355A,1511563049.994363,49.27909511801446,-122.9164490449329,346.3795,0.1547954,164.5896912224387,3,16,-9999,139655.5209752917,0.0772857666015625,-0.4713134765625,-0.827728271484375,139655.4899392917,1.475547837775995,-1.796101352912254,-0.8778604532839094
2017-11-24 14:37:30.625 -0800,93,C4D50155-580C-4885-BACB-A13DEF47355A,1511563049.994363,49.27909511801446,-122.9164490449329,346.3795,0.1547954,164.5896912224387,3,16,-9999,139655.5540872917,0.0848236083984375,-0.768890380859375,-0.850189208984375,139655.5229892917,1.95062381831305,-0.6883618943387761,-1.582154176211866
2017-11-24 14:37:30.657 -0800,94,C4D50155-580C-4885-BACB-A13DEF47355A,1511563049.994363,49.27909511801446,-122.9164490449329,346.3795,0.1547954,164.5896912224387,3,16,-9999,139655.5871072917,0.220703125,-0.7926025390625,-1.151626586914062,139655.5560702917,1.859875272588055,0.8624703116604504,-1.206795469002866
2017-11-24 14:37:30.691 -0800,95,C4D50155-580C-4885-BACB-A13DEF47355A,1511563049.994363,49.27909511801446,-122.9164490449329,346.3795,0.1547954,164.5896912224387,3,16,-9999,139655.6202182917,0.2887725830078125,-0.6144256591796875,-1.170761108398438,139655.5891212917,0.6336424560531361,0.5256504749020959,-0.5113343861462659
2017-11-24 14:37:30.723 -0800,96,C4D50155-580C-4885-BACB-A13DEF47355A,1511563049.994363,49.27909511801446,-122.9164490449329,346.3795,0.1547954,164.5896912224387,3,16,-9999,139655.6532382917,0.199859619140625,-0.421905517578125,-0.8390655517578125,139655.6222022917,0.3063271749091653,-0.5626865235496099,-0.2158438800287421
2017-11-24 14:37:30.777 -0800,97,C4D50155-580C-4885-BACB-A13DEF47355A,1511563049.994363,49.27909511801446,-122.9164490449329,346.3795,0.1547954,164.5896912224387,3,16,-9999,139655.6863502917,0.060577392578125,-0.2963714599609375,-0.5054931640625,139655.6552532917,0.8525100891835541,-1.131909243362601,0.02047012140278506
2017-11-24 14:37:30.789 -0800,98,C4D50155-580C-4885-BACB-A13DEF47355A,1511563049.994363,49.27909511801446,-122.9164490449329,346.3795,0.1547954,164.5896912224387,3,16,-9999,139655.7194012917,0.0340118408203125,-0.277130126953125,-0.43487548828125,139655.6883642917,0.7012744972001344,-0.8597898400232857,-0.08482967020229397
2017-11-24 14:37:30.823 -0800,99,C4D50155-580C-4885-BACB-A13DEF47355A,1511563049.994363,49.27909511801446,-122.9164490449329,346.3795,0.1547954,164.5896912224387,3,16,-9999,139655.7524822917,0.1107940673828125,-0.2410430908203125,-0.53094482421875,139655.7213842917,0.2738869433548011,-0.09794946699646033,-0.1759720974525118
2017-11-24 14:37:30.855 -0800,100,C4D50155-580C-4885-BACB-A13DEF47355A,1511563049.994363,49.27909511801446,-122.9164490449329,346.3795,0.1547954,164.5896912224387,3,16,-9999,139655.7855322917,0.15716552734375,-0.2659759521484375,-0.6356658935546875,139655.7544962917,0.4994969014169727,-0.1135161762001915,-0.03890026141056942
2017-11-24 14:37:30.889 -0800,101,C4D50155-580C-4885-BACB-A13DEF47355A,1511563049.994363,49.27909511801446,-122.9164490449329,346.3795,0.1547954,164.5896912224387,3,16,-9999,139655.8186132917,0.1927032470703125,-0.2344207763671875,-0.7245941162109375,139655.7875162917,0.1494376919315073,-0.3833625715491243,0.001837048519936659
2017-11-24 14:37:30.934 -0800,102,C4D50155-580C-4885-BACB-A13DEF47355A,1511563049.994363,49.27909511801446,-122.9164490449329,346.3795,0.1547954,164.5896912224387,3,16,-9999,139655.8516642917,0.2737274169921875,-0.3712310791015625,-0.789642333984375,139655.8206272917,0.04840268649608115,0.2764409148401871,-0.4419249512877488
2017-11-24 14:37:30.955 -0800,103,C4D50155-580C-4885-BACB-A13DEF47355A,1511563049.994363,49.27909511801446,-122.9164490449329,346.3795,0.1547954,164.5896912224387,3,16,-9999,139655.8847452917,0.4045867919921875,-0.39739990234375,-0.9696044921875,139655.8536472917,0.430806786368886,1.090228109141771,-0.2946366966720445
2017-11-24 14:37:30.987 -0800,104,C4D50155-580C-4885-BACB-A13DEF47355A,1511563049.994363,49.27909511801446,-122.9164490449329,346.3795,0.1547954,164.5896912224387,3,16,-9999,139655.9177952917,0.477569580078125,-0.3586273193359375,-1.126174926757812,139655.8867592917,-0.4069270198224725,1.324081882358283,-0.05643877508539525
2017-11-24 14:37:31.022 -0800,105,C4D50155-580C-4885-BACB-A13DEF47355A,1511563049.994363,49.27909511801446,-122.9164490449329,346.3795,0.1547954,164.5896912224387,3,16,-9999,139655.9508762917,0.5074005126953125,-0.5146484375,-1.171768188476562,139655.9197792917,-1.310533050312505,0.9770842428619726,-0.1037551581728331
2017-11-24 14:37:31.053 -0800,106,C4D50155-580C-4885-BACB-A13DEF47355A,1511563049.994363,49.27909511801446,-122.9164490449329,346.3795,0.1547954,164.5896912224387,3,16,-9999,139655.9839272917,0.3656463623046875,-0.471588134765625,-0.9959869384765625,139655.9528902917,-1.367604858789012,0.164552196382143,0.529212719176186
2017-11-24 14:37:31.093 -0800,107,C4D50155-580C-4885-BACB-A13DEF47355A,1511563049.994363,49.27909511801446,-122.9164490449329,346.3795,0.1547954,164.5896912224387,3,16,-9999,139656.0170082917,0.367767333984375,-0.4997711181640625,-0.8796844482421875,139655.9859112917,-1.765837722916812,0.1450083224064875,0.7026031482679749
2017-11-24 14:37:31.119 -0800,108,C4D50155-580C-4885-BACB-A13DEF47355A,1511563049.994363,49.27909511801446,-122.9164490449329,346.3795,0.1547954,164.5896912224387,3,16,-9999,139656.0500582917,0.6522979736328125,-0.562042236328125,-1.223236083984375,139656.0190222917,-1.711634405250429,1.712868514099572,0.1501048137845721
2017-11-24 14:37:31.171 -0800,109,C4D50155-580C-4885-BACB-A13DEF47355A,1511563049.994363,49.27909511801446,-122.9164490449329,346.3795,0.1547954,164.5896912224387,3,16,-9999,139656.0831402917,0.6343231201171875,-0.624267578125,-1.182968139648438,139656.0520422917,-0.2102898575753818,1.999423315811553,0.003064233150245171
2017-11-24 14:37:31.186 -0800,110,C4D50155-580C-4885-BACB-A13DEF47355A,1511563050.994342,49.279092774814,-122.916449344077,346.3801,0.2669557,161.8246940426341,3,16,-9999,139656.1161902917,0.3679656982421875,-0.607757568359375,-0.7713165283203125,139656.0851542917,0.09779127522770963,0.7527563305485651,0.2269620449476049
2017-11-24 14:37:31.220 -0800,111,C4D50155-580C-4885-BACB-A13DEF47355A,1511563050.994342,49.279092774814,-122.916449344077,346.3801,0.2669557,161.8246940426341,3,16,-9999,139656.1492712917,0.2460174560546875,-0.507537841796875,-0.6486053466796875,139656.1181742917,-0.6730846707455366,0.521989693667673,0.3004296046751848
2017-11-24 14:37:31.252 -0800,112,C4D50155-580C-4885-BACB-A13DEF47355A,1511563050.994342,49.279092774814,-122.916449344077,346.3801,0.2669557,161.8246940426341,3,16,-9999,139656.1823222917,0.2086944580078125,-0.4547271728515625,-0.58966064453125,139656.1512852917,-0.8981524092097681,0.5657209292956461,0.4750461531328463
2017-11-24 14:37:31.286 -0800,113,C4D50155-580C-4885-BACB-A13DEF47355A,1511563050.994342,49.279092774814,-122.916449344077,346.3801,0.2669557,161.8246940426341,3,16,-9999,139656.2154032917,0.1281585693359375,-0.3989105224609375,-0.4981231689453125,139656.1843362917,-0.6503897445680993,0.3866718155196568,0.6355303709498932
2017-11-24 14:37:31.326 -0800,114,C4D50155-580C-4885-BACB-A13DEF47355A,1511563050.994342,49.279092774814,-122.916449344077,346.3801,0.2669557,161.8246940426341,3,16,-9999,139656.2484532917,0.073944091796875,-0.35955810546875,-0.4308013916015625,139656.2174172917,-0.4453252753675619,0.2249415046285618,0.6357396954115735
2017-11-24 14:37:31.352 -0800,115,C4D50155-580C-4885-BACB-A13DEF47355A,1511563050.994342,49.279092774814,-122.916449344077,346.3801,0.2669557,161.8246940426341,3,16,-9999,139656.2815087917,0.099853515625,-0.382904052734375,-0.47210693359375,139656.2504672917,-0.4040105921127267,0.2495610973257993,0.436621532292965
2017-11-24 14:37:31.384 -0800,116,C4D50155-580C-4885-BACB-A13DEF47355A,1511563050.994342,49.279092774814,-122.916449344077,346.3801,0.2669557,161.8246940426341,3,16,-9999,139656.3145597917,0.077301025390625,-0.4967803955078125,-0.4932403564453125,139656.2835227917,-0.1587020304155659,0.2440483538693353,0.2188671004982
2017-11-24 14:37:31.418 -0800,117,C4D50155-580C-4885-BACB-A13DEF47355A,1511563050.994342,49.279092774814,-122.916449344077,346.3801,0.2669557,161.8246940426341,3,16,-9999,139656.3476407917,0.120330810546875,-0.54901123046875,-0.6468353271484375,139656.3165737917,0.1627327247254008,0.6867600029430935,0.2716072774616933
2017-11-24 14:37:31.450 -0800,118,C4D50155-580C-4885-BACB-A13DEF47355A,1511563050.994342,49.279092774814,-122.916449344077,346.3801,0.2669557,161.8246940426341,3,16,-9999,139656.3806907917,0.2715606689453125,-0.6102447509765625,-0.9029693603515625,139656.3496547917,0.2584017268804263,0.9050814217339362,0.2951725246833684
2017-11-24 14:37:31.487 -0800,119,C4D50155-580C-4885-BACB-A13DEF47355A,1511563050.994342,49.279092774814,-122.916449344077,346.3801,0.2669557,161.8246940426341,3,16,-9999,139656.4137717917,0.2456207275390625,-0.6945953369140625,-0.846893310546875,139656.3827057917,0.2579255536775202,0.005340969566153912,0.2929929936472476
2017-11-24 14:37:31.516 -0800,120,C4D50155-580C-4885-BACB-A13DEF47355A,1511563050.994342,49.279092774814,-122.916449344077,346.3801,0.2669557,161.8246940426341,3,16,-9999,139656.4468227917,0.232147216796875,-0.731201171875,-0.9041900634765625,139656.4157867917,-0.06297363976823168,-0.2232653110384659,0.3822269996603146
2017-11-24 14:37:31.551 -0800,121,C4D50155-580C-4885-BACB-A13DEF47355A,1511563050.994342,49.279092774814,-122.916449344077,346.3801,0.2669557,161.8246940426341,3,16,-9999,139656.4799037917,0.274749755859375,-0.704437255859375,-1.1275634765625,139656.4488367917,-0.4733409310868685,-0.06959958456034883,0.4026646304978007
2017-11-24 14:37:31.582 -0800,122,C4D50155-580C-4885-BACB-A13DEF47355A,1511563050.994342,49.279092774814,-122.916449344077,346.3801,0.2669557,161.8246940426341,3,16,-9999,139656.5129547917,0.2261962890625,-0.6295318603515625,-1.224929809570312,139656.4819177917,-0.7242008520762995,-0.7703443790196663,0.3814482913575754
2017-11-24 14:37:31.617 -0800,123,C4D50155-580C-4885-BACB-A13DEF47355A,1511563050.994342,49.279092774814,-122.916449344077,346.3801,0.2669557,161.8246940426341,3,16,-9999,139656.5460357917,0.1710357666015625,-0.52752685546875,-1.10595703125,139656.5149687917,-0.5686200464583064,-1.664592860387487,0.03439632337502741
2017-11-24 14:37:31.655 -0800,124,C4D50155-580C-4885-BACB-A13DEF47355A,1511563050.994342,49.279092774814,-122.916449344077,346.3801,0.2669557,161.8246940426341,3,16,-9999,139656.5790857917,0.1363525390625,-0.4608612060546875,-1.071746826171875,139656.5480497917,0.13195057726572,-1.738676941907421,-0.4058923817389767
2017-11-24 14:37:31.683 -0800,125,C4D50155-580C-4885-BACB-A13DEF47355A,1511563050.994342,49.279092774814,-122.916449344077,346.3801,0.2669557,161.8246940426341,3,16,-9999,139656.6121667917,0.175384521484375,-0.52587890625,-1.027236938476562,139656.5810997917,0.5724339594554089,-1.146589119923336,-1.0631477555973
2017-11-24 14:37:31.729 -0800,126,C4D50155-580C-4885-BACB-A13DEF47355A,1511563050.994342,49.279092774814,-122.916449344077,346.3801,0.2669557,161.8246940426341,3,16,-9999,139656.6452177917,0.32012939453125,-0.6649169921875,-1.326904296875,139656.6141807917,0.7670497824351293,0.6096207430206213,-1.486038029309817
2017-11-24 14:37:31.749 -0800,127,C4D50155-580C-4885-BACB-A13DEF47355A,1511563050.994342,49.279092774814,-122.916449344077,346.3801,0.2669557,161.8246940426341,3,16,-9999,139656.6782987917,0.4814300537109375,-0.5272064208984375,-1.437408447265625,139656.6472317917,0.8798016314024681,1.344230560217496,-1.209921487490401
2017-11-24 14:37:31.781 -0800,128,C4D50155-580C-4885-BACB-A13DEF47355A,1511563050.994342,49.279092774814,-122.916449344077,346.3801,0.2669557,161.8246940426341,3,16,-9999,139656.7113487917,0.2984466552734375,-0.442596435546875,-0.9529876708984375,139656.6803127917,1.032735787529141,-0.4276211130729332,-0.7763913525908003
2017-11-24 14:37:31.815 -0800,129,C4D50155-580C-4885-BACB-A13DEF47355A,1511563050.994342,49.279092774814,-122.916449344077,346.3801,0.2669557,161.8246940426341,3,16,-9999,139656.7444607917,0.165496826171875,-0.3374786376953125,-0.5221405029296875,139656.7133637917,1.000484906728281,-1.359516838558441,-0.5229281916358169
2017-11-24 14:37:31.847 -0800,130,C4D50155-580C-4885-BACB-A13DEF47355A,1511563050.994342,49.279092774814,-122.916449344077,346.3801,0.2669557,161.8246940426341,3,16,-9999,139656.7774807917,0.1380767822265625,-0.2888336181640625,-0.396484375,139656.7464447917,1.042458189720693,-1.015786098771331,-0.557482706779595
2017-11-24 14:37:31.883 -0800,131,C4D50155-580C-4885-BACB-A13DEF47355A,1511563050.994342,49.279092774814,-122.916449344077,346.3801,0.2669557,161.8246940426341,3,16,-9999,139656.8105927917,0.1847686767578125,-0.3120269775390625,-0.494140625,139656.7794947917,1.050308922298137,-0.3588540326693431,-0.6727395250682623
2017-11-24 14:37:31.913 -0800,132,C4D50155-580C-4885-BACB-A13DEF47355A,1511563050.994342,49.279092774814,-122.916449344077,346.3801,0.2669557,161.8246940426341,3,16,-9999,139656.8436127917,0.287933349609375,-0.263580322265625,-0.6403961181640625,139656.8125757917,1.007320708614296,-0.1053077810883493,-0.5867774787704666
2017-11-24 14:37:31.947 -0800,133,C4D50155-580C-4885-BACB-A13DEF47355A,1511563050.994342,49.279092774814,-122.916449344077,346.3801,0.2669557,161.8246940426341,3,16,-9999,139656.8767237917,0.40087890625,-0.2126007080078125,-0.69793701171875,139656.8456267917,0.9291169832041194,-0.2443503563369503,-0.4428565250370585
2017-11-24 14:37:31.979 -0800,134,C4D50155-580C-4885-BACB-A13DEF47355A,1511563050.994342,49.279092774814,-122.916449344077,346.3801,0.2669557,161.8246940426341,3,16,-9999,139656.9097437917,0.4169921875,-0.282196044921875,-0.7816619873046875,139656.8787077917,0.6073618497840161,-0.2502186317989399,-0.3031156689506387
2017-11-24 14:37:32.013 -0800,135,C4D50155-580C-4885-BACB-A13DEF47355A,1511563050.994342,49.279092774814,-122.916449344077,346.3801,0.2669557,161.8246940426341,3,16,-9999,139656.9428557917,0.6292724609375,-0.2576141357421875,-1.069137573242188,139656.9117577917,-0.1152224635106053,0.7306110808201202,-0.241785199574986
2017-11-24 14:37:32.058 -0800,136,C4D50155-580C-4885-BACB-A13DEF47355A,1511563050.994342,49.279092774814,-122.916449344077,346.3801,0.2669557,161.8246940426341,3,16,-9999,139656.9758757917,0.6691436767578125,-0.3424530029296875,-1.091842651367188,139656.9448387917,-0.07686548696241201,1.04533919738794,-0.04143931919385097
2017-11-24 14:37:32.079 -0800,137,C4D50155-580C-4885-BACB-A13DEF47355A,1511563050.994342,49.279092774814,-122.916449344077,346.3801,0.2669557,161.8246940426341,3,16,-9999,139657.0089867917,0.5864410400390625,-0.453765869140625,-0.91131591796875,139656.9778897917,-0.08269354869194141,0.5067497543296946,0.3889413614006224
2017-11-24 14:37:32.135 -0800,138,C4D50155-580C-4885-BACB-A13DEF47355A,1511563050.994342,49.279092774814,-122.916449344077,346.3801,0.2669557,161.8246940426341,3,16,-9999,139657.0420067917,0.4984130859375,-0.4732666015625,-0.825286865234375,139657.0109707917,-0.6275651224455753,0.3502533539289323,0.8251703437489096
2017-11-24 14:37:32.146 -0800,139,C4D50155-580C-4885-BACB-A13DEF47355A,1511563050.994342,49.279092774814,-122.916449344077,346.3801,0.2669557,161.8246940426341,3,16,-9999,139657.0751187917,0.5168914794921875,-0.4818115234375,-0.8668060302734375,139657.0440217917,-1.319824020407464,0.4607023675016795,1.065759251362232
2017-11-24 14:37:32.177 -0800,140,C4D50155-580C-4885-BACB-A13DEF47355A,1511563051.994338,49.27909308438116,-122.9164574773805,346.3897,0.3679769,64.58442464056473,3,16,-9999,139657.1081387917,0.51800537109375,-0.4650421142578125,-0.943939208984375,139657.0771027917,-1.860640132453125,0.6813655038390289,1.174346449016905
2017-11-24 14:37:32.212 -0800,141,C4D50155-580C-4885-BACB-A13DEF47355A,1511563051.994338,49.27909308438116,-122.9164574773805,346.3897,0.3679769,64.58442464056473,3,16,-9999,139657.1412507917,0.5123748779296875,-0.4289398193359375,-0.9511566162109375,139657.1101527917,-1.824080789640736,0.9246045230530892,0.9501434389586221
2017-11-24 14:37:32.244 -0800,142,C4D50155-580C-4885-BACB-A13DEF47355A,1511563051.994338,49.27909308438116,-122.9164574773805,346.3897,0.3679769,64.58442464056473,3,16,-9999,139657.1742707917,0.409942626953125,-0.45440673828125,-0.7687835693359375,139657.1432337917,-1.204483578860569,0.6018525684369692,0.8778620511805634
2017-11-24 14:37:32.281 -0800,143,C4D50155-580C-4885-BACB-A13DEF47355A,1511563051.994338,49.27909308438116,-122.9164574773805,346.3897,0.3679769,64.58442464056473,3,16,-9999,139657.2073817917,0.263824462890625,-0.432159423828125,-0.5727691650390625,139657.1762847917,-1.004966207894557,0.278825775596353,0.8999135576386376
2017-11-24 14:37:32.310 -0800,144,C4D50155-580C-4885-BACB-A13DEF47355A,1511563051.994338,49.27909308438116,-122.9164574773805,346.3897,0.3679769,64.58442464056473,3,16,-9999,139657.2404327917,0.1762847900390625,-0.38214111328125,-0.50775146484375,139657.2093657917,-1.127486531740307,0.336297324552481,0.9615987600714889
2017-11-24 14:37:32.344 -0800,145,C4D50155-580C-4885-BACB-A13DEF47355A,1511563051.994338,49.27909308438116,-122.9164574773805,346.3897,0.3679769,64.58442464056473,3,16,-9999,139657.273518625,0.16558837890625,-0.3194580078125,-0.5565643310546875,139657.2424157917,-1.068682336974703,0.5653446246336179,0.9632382020385416
2017-11-24 14:37:32.376 -0800,146,C4D50155-580C-4885-BACB-A13DEF47355A,1511563051.994338,49.27909308438116,-122.9164574773805,346.3897,0.3679769,64.58442464056473,3,16,-9999,139657.306568625,0.074859619140625,-0.297943115234375,-0.5027008056640625,139657.275532625,-0.7361885390910732,0.2933258887835075,0.7432616286302146
2017-11-24 14:37:32.410 -0800,147,C4D50155-580C-4885-BACB-A13DEF47355A,1511563051.994338,49.27909308438116,-122.9164574773805,346.3897,0.3679769,64.58442464056473,3,16,-9999,139657.339649625,0.028778076171875,-0.3349761962890625,-0.4832305908203125,139657.308552625,-0.4441289834058983,0.1605111157440568,0.4452368584193713
2017-11-24 14:37:32.446 -0800,148,C4D50155-580C-4885-BACB-A13DEF47355A,1511563051.994338,49.27909308438116,-122.9164574773805,346.3897,0.3679769,64.58442464056473,3,16,-9999,139657.372700625,0.095672607421875,-0.446624755859375,-0.6409149169921875,139657.341663625,-0.1850042082895155,0.5233223394771487,0.110576046356744
2017-11-24 14:37:32.476 -0800,149,C4D50155-580C-4885-BACB-A13DEF47355A,1511563051.994338,49.27909308438116,-122.9164574773805,346.3897,0.3679769,64.58442464056473,3,16,-9999,139657.405781625,0.1329193115234375,-0.5536041259765625,-0.7770843505859375,139657.374683625,0.4626456761491103,0.6198848321778957,-0.1388460339601532
2017-11-24 14:37:32.510 -0800,150,C4D50155-580C-4885-BACB-A13DEF47355A,1511563051.994338,49.27909308438116,-122.9164574773805,346.3897,0.3679769,64.58442464056473,3,16,-9999,139657.438831625,0.097808837890625,-0.6951751708984375,-0.79608154296875,139657.407795625,0.6941137896611292,0.2492279358734304,-0.2375598281894662
2017-11-24 14:37:32.542 -0800,151,C4D50155-580C-4885-BACB-A13DEF47355A,1511563051.994338,49.27909308438116,-122.9164574773805,346.3897,0.3679769,64.58442464056473,3,16,-9999,139657.471912625,0.2037353515625,-0.8021087646484375,-1.061752319335938,139657.440815625,0.2507957388071601,0.4517629346706105,-0.2101686837457832
2017-11-24 14:37:32.575 -0800,152,C4D50155-580C-4885-BACB-A13DEF47355A,1511563051.994338,49.27909308438116,-122.9164574773805,346.3897,0.3679769,64.58442464056473,3,16,-9999,139657.504963625,0.2998199462890625,-0.7564697265625,-1.258255004882812,139657.473927625,-0.1655372996693633,0.2593042721738542,-0.03114886474178478
2017-11-24 14:37:32.612 -0800,153,C4D50155-580C-4885-BACB-A13DEF47355A,1511563051.994338,49.27909308438116,-122.9164574773805,346.3897,0.3679769,64.58442464056473,3,16,-9999,139657.538044625,0.175079345703125,-0.720916748046875,-1.25006103515625,139657.506947625,-0.3539125372667011,-0.6042254449682298,0.1483380727174136
2017-11-24 14:37:32.641 -0800,154,C4D50155-580C-4885-BACB-A13DEF47355A,1511563051.994338,49.27909308438116,-122.9164574773805,346.3897,0.3679769,64.58442464056473,3,16,-9999,139657.571095625,0.189422607421875,-0.6296844482421875,-1.281326293945312,139657.540058625,-0.5210754304654488,-1.011084287866796,0.01770842335237289
2017-11-24 14:37:32.693 -0800,155,C4D50155-580C-4885-BACB-A13DEF47355A,1511563051.994338,49.27909308438116,-122.9164574773805,346.3897,0.3679769,64.58442464056473,3,16,-9999,139657.604176625,0.21624755859375,-0.5054779052734375,-1.262344360351562,139657.573078625,0.2336947824994342,-1.185255822106305,-0.2729276727301546
2017-11-24 14:37:32.707 -0800,156,C4D50155-580C-4885-BACB-A13DEF47355A,1511563051.994338,49.27909308438116,-122.9164574773805,346.3897,0.3679769,64.58442464056473,3,16,-9999,139657.637226625,0.1568145751953125,-0.44683837890625,-1.116439819335938,139657.606190625,0.6663687111085748,-1.68667419424977,-0.4947966884090919
2017-11-24 14:37:32.741 -0800,157,C4D50155-580C-4885-BACB-A13DEF47355A,1511563051.994338,49.27909308438116,-122.9164574773805,346.3897,0.3679769,64.58442464056473,3,16,-9999,139657.670307625,0.152313232421875,-0.52252197265625,-1.129226684570312,139657.639210625,0.413800105963749,-1.048637256081895,-1.054144673216178
2017-11-24 14:37:32.775 -0800,158,C4D50155-580C-4885-BACB-A13DEF47355A,1511563051.994338,49.27909308438116,-122.9164574773805,346.3897,0.3679769,64.58442464056473,3,16,-9999,139657.703358625,0.2889862060546875,-0.4898681640625,-1.423080444335938,139657.672321625,0.7264759905955541,0.4140509757384345,-1.206491336006379
2017-11-24 14:37:32.807 -0800,159,C4D50155-580C-4885-BACB-A13DEF47355A,1511563051.994338,49.27909308438116,-122.9164574773805,346.3897,0.3679769,64.58442464056473,3,16,-9999,139657.736439625,0.26824951171875,-0.3911285400390625,-1.205810546875,139657.705341625,1.072655240688883,-0.1811950889823752,-1.007969188339731
2017-11-24 14:37:32.844 -0800,160,C4D50155-580C-4885-BACB-A13DEF47355A,1511563051.994338,49.27909308438116,-122.9164574773805,346.3897,0.3679769,64.58442464056473,3,16,-9999,139657.769489625,0.1485137939453125,-0.30816650390625,-0.7140960693359375,139657.738453625,1.50010085144598,-1.278255804216853,-0.9569845671668176
2017-11-24 14:37:32.873 -0800,161,C4D50155-580C-4885-BACB-A13DEF47355A,1511563051.994338,49.27909308438116,-122.9164574773805,346.3897,0.3679769,64.58442464056473,3,16,-9999,139657.802570625,0.111358642578125,-0.2830352783203125,-0.4538726806640625,139657.771504625,1.812943449962024,-1.263023854362145,-0.9639279607608722
2017-11-24 14:37:32.905 -0800,162,C4D50155-580C-4885-BACB-A13DEF47355A,1511563051.994338,49.27909308438116,-122.9164574773805,346.3897,0.3679769,64.58442464056473,3,16,-9999,139657.835621625,0.1844635009765625,-0.30267333984375,-0.48651123046875,139657.804585625,1.692150718715409,-0.6442064171491534,-0.9476512528105259
2017-11-24 14:37:32.939 -0800,163,C4D50155-580C-4885-BACB-A13DEF47355A,1511563051.994338,49.27909308438116,-122.9164574773805,346.3897,0.3679769,64.58442464056473,3,16,-9999,139657.868702625,0.2402496337890625,-0.307586669921875,-0.531829833984375,139657.837635625,1.523619759664688,-0.3968871688289828,-0.7714985930361067
2017-11-24 14:37:32.971 -0800,164,C4D50155-580C-4885-BACB-A13DEF47355A,1511563051.994338,49.27909308438116,-122.9164574773805,346.3897,0.3679769,64.58442464056473,3,16,-9999,139657.901753625,0.3328857421875,-0.2391204833984375,-0.5574951171875,139657.870716625,1.157113133603002,-0.5694168642564581,-0.5149365778367071
2017-11-24 14:37:33.010 -0800,165,C4D50155-580C-4885-BACB-A13DEF47355A,1511563051.994338,49.27909308438116,-122.9164574773805,346.3897,0.3679769,64.58442464056473,3,16,-9999,139657.934834625,0.362579345703125,-0.2444000244140625,-0.6812591552734375,139657.903767625,0.8502839528283569,-0.02780979336704344,-0.3895517579224685
2017-11-24 14:37:33.037 -0800,166,C4D50155-580C-4885-BACB-A13DEF47355A,1511563051.994338,49.27909308438116,-122.9164574773805,346.3897,0.3679769,64.58442464056473,3,16,-9999,139657.967884625,0.5601806640625,-0.268310546875,-0.9041748046875,139657.936848625,0.5198037710449359,0.7475879338210483,-0.4671717184217
2017-11-24 14:37:33.089 -0800,167,C4D50155-580C-4885-BACB-A13DEF47355A,1511563051.994338,49.27909308438116,-122.9164574773805,346.3897,0.3679769,64.58442464056473,3,16,-9999,139658.000965625,0.672119140625,-0.2734832763671875,-1.052963256835938,139657.969898625,-0.04082093318873457,1.202717636741737,-0.3179713141433188
2017-11-24 14:37:33.104 -0800,168,C4D50155-580C-4885-BACB-A13DEF47355A,1511563051.994338,49.27909308438116,-122.9164574773805,346.3897,0.3679769,64.58442464056473,3,16,-9999,139658.034016625,0.5937957763671875,-0.340850830078125,-0.973541259765625,139658.002979625,-0.6287720670515992,0.6252393838656091,0.02285631373949605
2017-11-24 14:37:33.138 -0800,169,C4D50155-580C-4885-BACB-A13DEF47355A,1511563051.994338,49.27909308438116,-122.9164574773805,346.3897,0.3679769,64.58442464056473,3,16,-9999,139658.067097625,0.5860443115234375,-0.3544464111328125,-0.8077239990234375,139658.036030625,-1.042862723890276,0.2351768316460633,0.3630953830214033
2017-11-24 14:37:33.170 -0800,170,C4D50155-580C-4885-BACB-A13DEF47355A,1511563052.994318,49.2790917165941,-122.9164691223972,346.3513,0.04289231,28.25962253052994,3,16,-9999,139658.100147625,0.5543212890625,-0.4631805419921875,-0.8238372802734375,139658.069111625,-0.9618605488066436,0.5423836486632818,0.5631477830504116
2017-11-24 14:37:33.204 -0800,171,C4D50155-580C-4885-BACB-A13DEF47355A,1511563052.994318,49.2790917165941,-122.9164691223972,346.3513,0.04289231,28.25962253052994,3,16,-9999,139658.133228625,0.6344146728515625,-0.5055999755859375,-1.018035888671875,139658.102161625,-1.558781475537004,1.182216622670307,0.7089324169146571
2017-11-24 14:37:33.248 -0800,172,C4D50155-580C-4885-BACB-A13DEF47355A,1511563052.994318,49.2790917165941,-122.9164691223972,346.3513,0.04289231,28.25962253052994,3,16,-9999,139658.166279625,0.665740966796875,-0.546661376953125,-1.2208251953125,139658.135243625,-2.439955966481408,1.413351574729957,0.7091566550784418
2017-11-24 14:37:33.270 -0800,173,C4D50155-580C-4885-BACB-A13DEF47355A,1511563052.994318,49.2790917165941,-122.9164691223972,346.3513,0.04289231,28.25962253052994,3,16,-9999,139658.199360625,0.5378875732421875,-0.44775390625,-1.013839721679688,139658.168293625,-2.281477108965191,0.8885264134496768,0.9224593467950304
2017-11-24 14:37:33.302 -0800,174,C4D50155-580C-4885-BACB-A13DEF47355A,1511563052.994318,49.2790917165941,-122.9164691223972,346.3513,0.04289231,28.25962253052994,3,16,-9999,139658.232411625,0.38433837890625,-0.3996124267578125,-0.718353271484375,139658.201374625,-1.48078920511738,0.3541250575216894,0.9178888297322364
2017-11-24 14:37:33.336 -0800,175,C4D50155-580C-4885-BACB-A13DEF47355A,1511563052.994318,49.2790917165941,-122.9164691223972,346.3513,0.04289231,28.25962253052994,3,16,-9999,139658.265492625,0.2560577392578125,-0.409088134765625,-0.5595550537109375,139658.234425625,-0.9928299164909571,0.3713567750389382,0.7387065579017431
2017-11-24 14:37:33.368 -0800,176,C4D50155-580C-4885-BACB-A13DEF47355A,1511563052.994318,49.2790917165941,-122.9164691223972,346.3513,0.04289231,28.25962253052994,3,16,-9999,139658.298523125,0.1804656982421875,-0.3236541748046875,-0.5126953125,139658.267506625,-1.043131436844265,0.4478169288834401,0.7677398074735688
2017-11-24 14:37:33.405 -0800,177,C4D50155-580C-4885-BACB-A13DEF47355A,1511563052.994318,49.2790917165941,-122.9164691223972,346.3513,0.04289231,28.25962253052994,3,16,-9999,139658.331635125,0.1762542724609375,-0.29864501953125,-0.41400146484375,139658.300537125,-1.208442367820971,0.2052338462458664,0.7524005322269305
2017-11-24 14:37:33.435 -0800,178,C4D50155-580C-4885-BACB-A13DEF47355A,1511563052.994318,49.2790917165941,-122.9164691223972,346.3513,0.04289231,28.25962253052994,3,16,-9999,139658.364655125,0.1509857177734375,-0.40728759765625,-0.4070892333984375,139658.333618125,-0.5987838079128709,0.4218439177202243,0.4589617254132037
2017-11-24 14:37:33.469 -0800,179,C4D50155-580C-4885-BACB-A13DEF47355A,1511563052.994318,49.2790917165941,-122.9164691223972,346.3513,0.04289231,28.25962253052994,3,16,-9999,139658.397766125,0.1286773681640625,-0.4591064453125,-0.498382568359375,139658.366669125,0.08286931732388665,0.773660014576815,0.4532657564737422
2017-11-24 14:37:33.502 -0800,180,C4D50155-580C-4885-BACB-A13DEF47355A,1511563052.994318,49.2790917165941,-122.9164691223972,346.3513,0.04289231,28.25962253052994,3,16,-9999,139658.430786125,0.11468505859375,-0.506500244140625,-0.66845703125,139658.399750125,-0.1842191084001601,0.6595126691982748,0.5501515569308248
2017-11-24 14:37:33.536 -0800,181,C4D50155-580C-4885-BACB-A13DEF47355A,1511563052.994318,49.2790917165941,-122.9164691223972,346.3513,0.04289231,28.25962253052994,3,16,-9999,139658.463898125,0.1865386962890625,-0.5947113037109375,-0.886993408203125,139658.432800125,-0.5538919666818412,0.4398657951328995,0.4045320390541642
2017-11-24 14:37:33.567 -0800,182,C4D50155-580C-4885-BACB-A13DEF47355A,1511563052.994318,49.2790917165941,-122.9164691223972,346.3513,0.04289231,28.25962253052994,3,16,-9999,139658.496918125,0.1448974609375,-0.6010284423828125,-0.884521484375,139658.465882125,-0.1109496878576821,0.08008098766257368,0.5192658125047399
2017-11-24 14:37:33.602 -0800,183,C4D50155-580C-4885-BACB-A13DEF47355A,1511563052.994318,49.2790917165941,-122.9164691223972,346.3513,0.04289231,28.25962253052994,3,16,-9999,139658.530029125,0.164398193359375,-0.6592254638671875,-0.9863128662109375,139658.498932125,0.1459257814020198,0.04686870570819551,0.3580247243058925
2017-11-24 14:37:33.649 -0800,184,C4D50155-580C-4885-BACB-A13DEF47355A,1511563052.994318,49.2790917165941,-122.9164691223972,346.3513,0.04289231,28.25962253052994,3,16,-9999,139658.563049125,0.17529296875,-0.6741485595703125,-1.148788452148438,139658.532013125,-0.1067991512987936,0.07862530381073637,0.08223362077168474
2017-11-24 14:37:33.668 -0800,185,C4D50155-580C-4885-BACB-A13DEF47355A,1511563052.994318,49.2790917165941,-122.9164691223972,346.3513,0.04289231,28.25962253052994,3,16,-9999,139658.596161125,0.162384033203125,-0.6280517578125,-1.217849731445312,139658.565064125,-0.5264749895755845,-0.3541586133514245,-0.07439593768358153
2017-11-24 14:37:33.699 -0800,186,C4D50155-580C-4885-BACB-A13DEF47355A,1511563052.994318,49.2790917165941,-122.9164691223972,346.3513,0.04289231,28.25962253052994,3,16,-9999,139658.629181125,0.1587066650390625,-0.570587158203125,-1.25531005859375,139658.598145125,-0.2246882380088953,-0.8288297934027875,-0.2518247842523667
2017-11-24 14:37:33.733 -0800,187,C4D50155-580C-4885-BACB-A13DEF47355A,1511563052.994318,49.2790917165941,-122.9164691223972,346.3513,0.04289231,28.25962253052994,3,16,-9999,139658.662293125,0.2005767822265625,-0.59832763671875,-1.306182861328125,139658.631195125,0.0908231142355173,-1.142969884001918,-0.6540782226778591
2017-11-24 14:37:33.765 -0800,188,C4D50155-580C-4885-BACB-A13DEF47355A,1511563052.994318,49.2790917165941,-122.9164691223972,346.3513,0.04289231,28.25962253052994,3,16,-9999,139658.695313125,0.4167327880859375,-0.564910888671875,-1.56646728515625,139658.664276125,-0.4851059778345116,-0.5119013731423439,-1.046066240365532
2017-11-24 14:37:33.809 -0800,189,C4D50155-580C-4885-BACB-A13DEF47355A,1511563052.994318,49.2790917165941,-122.9164691223972,346.3513,0.04289231,28.25962253052994,3,16,-9999,139658.728424125,0.5822296142578125,-0.4324493408203125,-1.68951416015625,139658.697327125,0.5329177088847041,0.4428243007878686,-1.010058171898789
2017-11-24 14:37:33.831 -0800,190,C4D50155-580C-4885-BACB-A13DEF47355A,1511563052.994318,49.2790917165941,-122.9164691223972,346.3513,0.04289231,28.25962253052994,3,16,-9999,139658.761444125,0.405426025390625,-0.41070556640625,-1.21478271484375,139658.730408125,1.945669007104957,-0.5250440731218848,-0.8373899920946293
2017-11-24 14:37:33.865 -0800,191,C4D50155-580C-4885-BACB-A13DEF47355A,1511563052.994318,49.2790917165941,-122.9164691223972,346.3513,0.04289231,28.25962253052994,3,16,-9999,139658.794556125,0.234649658203125,-0.350921630859375,-0.7353057861328125,139658.763458125,2.083222608988095,-1.373348231995877,-0.6794938342249213
2017-11-24 14:37:33.897 -0800,192,C4D50155-580C-4885-BACB-A13DEF47355A,1511563052.994318,49.2790917165941,-122.9164691223972,346.3513,0.04289231,28.25962253052994,3,16,-9999,139658.827606125,0.1775054931640625,-0.255126953125,-0.5612335205078125,139658.796539125,1.848298245013371,-1.14507671074028,-0.4408032278366074
2017-11-24 14:37:33.931 -0800,193,C4D50155-580C-4885-BACB-A13DEF47355A,1511563052.994318,49.2790917165941,-122.9164691223972,346.3513,0.04289231,28.25962253052994,3,16,-9999,139658.860687125,0.174102783203125,-0.1955718994140625,-0.5144805908203125,139658.829590125,1.57307173163026,-0.8379577780390342,-0.3590042349548236
2017-11-24 14:37:33.970 -0800,194,C4D50155-580C-4885-BACB-A13DEF47355A,1511563052.994318,49.2790917165941,-122.9164691223972,346.3513,0.04289231,28.25962253052994,3,16,-9999,139658.893738125,0.1586456298828125,-0.14361572265625,-0.489166259765625,139658.862702125,1.439106206683786,-0.9321841458315637,-0.2989600723856791
2017-11-24 14:37:33.997 -0800,195,C4D50155-580C-4885-BACB-A13DEF47355A,1511563052.994318,49.2790917165941,-122.9164691223972,346.3513,0.04289231,28.25962253052994,3,16,-9999,139658.926819125,0.1470947265625,-0.168975830078125,-0.495513916015625,139658.895722125,1.286791501826666,-1.133247481810366,-0.4235012028665806
2017-11-24 14:37:34.030 -0800,196,C4D50155-580C-4885-BACB-A13DEF47355A,1511563052.994318,49.2790917165941,-122.9164691223972,346.3513,0.04289231,28.25962253052994,3,16,-9999,139658.959870125,0.188262939453125,-0.1743927001953125,-0.525970458984375,139658.928833125,1.355448327361127,-0.9688111329356415,-0.5079804010694202
2017-11-24 14:37:34.063 -0800,197,C4D50155-580C-4885-BACB-A13DEF47355A,1511563052.994318,49.2790917165941,-122.9164691223972,346.3513,0.04289231,28.25962253052994,3,16,-9999,139658.992951125,0.2709503173828125,-0.249847412109375,-0.59814453125,139658.961853125,1.169932259510098,-0.6159380274423982,-0.6392433501416817
2017-11-24 14:37:34.095 -0800,198,C4D50155-580C-4885-BACB-A13DEF47355A,1511563052.994318,49.2790917165941,-122.9164691223972,346.3513,0.04289231,28.25962253052994,3,16,-9999,139659.026001125,0.4547271728515625,-0.30926513671875,-0.9411773681640625,139658.994965125,0.518260469193235,0.5411700461545327,-0.7761181122629582
2017-11-24 14:37:34.130 -0800,199,C4D50155-580C-4885-BACB-A13DEF47355A,1511563052.994318,49.2790917165941,-122.9164691223972,346.3513,0.04289231,28.25962253052994,3,16,-9999,139659.059082125,0.616119384765625,-0.3357391357421875,-1.193191528320312,139659.027985125,-0.1768978122474233,1.129418122478941,-0.7513874657482643
2017-11-24 14:37:34.161 -0800,200,C4D50155-580C-4885-BACB-A13DEF47355A,1511563053.994315,49.27909266342318,-122.9164786369441,346.2995,0.3549847,112.438171135589,3,16,-9999,139659.092133125,0.5574951171875,-0.318115234375,-1.018997192382812,139659.061096125,-0.8715303856889001,0.2911072092793625,-0.3727472114440685
2017-11-24 14:37:34.200 -0800,201,C4D50155-580C-4885-BACB-A13DEF47355A,1511563053.994315,49.27909266342318,-122.9164786369441,346.2995,0.3549847,112.438171135589,3,16,-9999,139659.125214125,0.6458892822265625,-0.3222198486328125,-0.833404541015625,139659.094116125,-0.8258539772007329,0.1888330349887224,-0.1690180512140969
2017-11-24 14:37:34.228 -0800,202,C4D50155-580C-4885-BACB-A13DEF47355A,1511563053.994315,49.27909266342318,-122.9164786369441,346.2995,0.3549847,112.438171135589,3,16,-9999,139659.158264125,0.7106170654296875,-0.433563232421875,-0.8724365234375,139659.127228125,-0.0702238295198634,0.9436146995462927,-0.1372784973425325
2017-11-24 14:37:34.262 -0800,203,C4D50155-580C-4885-BACB-A13DEF47355A,1511563053.994315,49.27909266342318,-122.9164786369441,346.2995,0.3549847,112.438171135589,3,16,-9999,139659.191345125,0.7586517333984375,-0.5148468017578125,-0.9366302490234375,139659.160248125,-0.1619175311157276,1.195177961379614,-0.07136472773085335
2017-11-24 14:37:34.294 -0800,204,C4D50155-580C-4885-BACB-A13DEF47355A,1511563053.994315,49.27909266342318,-122.9164786369441,346.2995,0.3549847,112.438171135589,3,16,-9999,139659.224396125,0.7339019775390625,-0.5940399169921875,-1.020217895507812,139659.193360125,-1.096683611624123,1.201229994956819,0.1006792071137916
2017-11-24 14:37:34.328 -0800,205,C4D50155-580C-4885-BACB-A13DEF47355A,1511563053.994315,49.27909266342318,-122.9164786369441,346.2995,0.3549847,112.438171135589,3,16,-9999,139659.257477125,0.6522979736328125,-0.458526611328125,-0.9136962890625,139659.226380125,-1.816279325543458,0.8181806111518877,0.4608131550030268
2017-11-24 14:37:34.363 -0800,206,C4D50155-580C-4885-BACB-A13DEF47355A,1511563053.994315,49.27909266342318,-122.9164786369441,346.2995,0.3549847,112.438171135589,3,16,-9999,139659.2905029167,0.4851226806640625,-0.45074462890625,-0.62860107421875,139659.259491125,-1.639799096954959,0.1597585064200004,0.5890448941225601
2017-11-24 14:37:34.394 -0800,207,C4D50155-580C-4885-BACB-A13DEF47355A,1511563053.994315,49.27909266342318,-122.9164786369441,346.2995,0.3549847,112.438171135589,3,16,-9999,139659.3235839167,0.3109130859375,-0.471527099609375,-0.4830322265625,139659.2924859167,-0.977030713324062,0.1857914387077429,0.6428343565555446
2017-11-24 14:37:34.426 -0800,208,C4D50155-580C-4885-BACB-A13DEF47355A,1511563053.994315,49.27909266342318,-122.9164786369441,346.2995,0.3549847,112.438171135589,3,16,-9999,139659.3566339167,0.247589111328125,-0.4278106689453125,-0.5050048828125,139659.3255979167,-1.200141827335412,0.6594615365053452,0.6685684821689802
2017-11-24 14:37:34.460 -0800,209,C4D50155-580C-4885-BACB-A13DEF47355A,1511563053.994315,49.27909266342318,-122.9164786369441,346.2995,0.3549847,112.438171135589,3,16,-9999,139659.3897149167,0.216888427734375,-0.3475799560546875,-0.558441162109375,139659.3586179167,-1.464325276942401,0.7383928375253317,0.7787359996145061
2017-11-24 14:37:34.492 -0800,210,C4D50155-580C-4885-BACB-A13DEF47355A,1511563053.994315,49.27909266342318,-122.9164786369441,346.2995,0.3549847,112.438171135589,3,16,-9999,139659.4227659167,0.195770263671875,-0.32861328125,-0.471099853515625,139659.3917289167,-1.415749751291573,0.4199032722338836,0.8277871658360215
2017-11-24 14:37:34.526 -0800,211,C4D50155-580C-4885-BACB-A13DEF47355A,1511563053.994315,49.27909266342318,-122.9164786369441,346.2995,0.3549847,112.438171135589,3,16,-9999,139659.4558469167,0.1505126953125,-0.4121856689453125,-0.488616943359375,139659.4247799167,-0.7304875101455405,0.5036769990639611,0.5609496098866602
2017-11-24 14:37:34.558 -0800,212,C4D50155-580C-4885-BACB-A13DEF47355A,1511563053.994315,49.27909266342318,-122.9164786369441,346.2995,0.3549847,112.438171135589,3,16,-9999,139659.4888969167,0.1593780517578125,-0.463592529296875,-0.6475982666015625,139659.4578609167,-0.09316190230482489,0.8631398303584964,0.4768160899933129
2017-11-24 14:37:34.614 -0800,213,C4D50155-580C-4885-BACB-A13DEF47355A,1511563053.994315,49.27909266342318,-122.9164786369441,346.2995,0.3549847,112.438171135589,3,16,-9999,139659.5219779167,0.1861419677734375,-0.5688934326171875,-0.780914306640625,139659.4909109167,-0.01375442808193224,0.5998935471391069,0.4361714580687416
2017-11-24 14:37:34.625 -0800,214,C4D50155-580C-4885-BACB-A13DEF47355A,1511563053.994315,49.27909266342318,-122.9164786369441,346.2995,0.3549847,112.438171135589,3,16,-9999,139659.5550289167,0.193511962890625,-0.64398193359375,-0.8401031494140625,139659.5239919167,0.1820776605676274,0.2357305028366908,0.3059727081680758
2017-11-24 14:37:34.659 -0800,215,C4D50155-580C-4885-BACB-A13DEF47355A,1511563053.994315,49.27909266342318,-122.9164786369441,346.2995,0.3549847,112.438171135589,3,16,-9999,139659.5881099167,0.161773681640625,-0.778411865234375,-0.9350738525390625,139659.5570429167,0.3217900208303834,0.04680558879036063,0.1464445651823672
2017-11-24 14:37:34.691 -0800,216,C4D50155-580C-4885-BACB-A13DEF47355A,1511563053.994315,49.27909266342318,-122.9164786369441,346.2995,0.3549847,112.438171135589,3,16,-9999,139659.6211599167,0.175323486328125,-0.7925872802734375,-1.1033935546875,139659.5901239167,-0.07893636102605762,-0.1147066092074569,0.1886338305391845
2017-11-24 14:37:34.725 -0800,217,C4D50155-580C-4885-BACB-A13DEF47355A,1511563053.994315,49.27909266342318,-122.9164786369441,346.2995,0.3549847,112.438171135589,3,16,-9999,139659.6542419167,0.19390869140625,-0.707275390625,-1.335113525390625,139659.6231749167,-0.8968748908348572,-0.4715856416123973,0.2332758672599648
2017-11-24 14:37:34.770 -0800,218,C4D50155-580C-4885-BACB-A13DEF47355A,1511563053.994315,49.27909266342318,-122.9164786369441,346.2995,0.3549847,112.438171135589,3,16,-9999,139659.6872919167,0.2458343505859375,-0.6414947509765625,-1.336746215820312,139659.6562559167,-0.6507436786769709,-0.974611497789834,-0.05372874236013062
2017-11-24 14:37:34.791 -0800,219,C4D50155-580C-4885-BACB-A13DEF47355A,1511563053.994315,49.27909266342318,-122.9164786369441,346.2995,0.3549847,112.438171135589,3,16,-9999,139659.7203729167,0.2083892822265625,-0.6104278564453125,-1.23052978515625,139659.6893059167,0.3209545871964255,-1.492057572321723,-0.2901348891653745
2017-11-24 14:37:34.823 -0800,220,C4D50155-580C-4885-BACB-A13DEF47355A,1511563053.994315,49.27909266342318,-122.9164786369441,346.2995,0.3549847,112.438171135589,3,16,-9999,139659.7534239167,0.3344573974609375,-0.5627899169921875,-1.2823486328125,139659.7223869167,0.2567348543541457,-1.272770225003508,-0.6619601142400576
2017-11-24 14:37:34.857 -0800,221,C4D50155-580C-4885-BACB-A13DEF47355A,1511563053.994315,49.27909266342318,-122.9164786369441,346.2995,0.3549847,112.438171135589,3,16,-9999,139659.7865049167,0.497467041015625,-0.58892822265625,-1.5574951171875,139659.7554379167,0.7123689599852955,0.0138873198203272,-1.083286047128261
2017-11-24 14:37:34.889 -0800,222,C4D50155-580C-4885-BACB-A13DEF47355A,1511563053.994315,49.27909266342318,-122.9164786369441,346.2995,0.3549847,112.438171135589,3,16,-9999,139659.8195549167,0.4337158203125,-0.4757537841796875,-1.384979248046875,139659.7885189167,1.808299962285362,-0.2065473172954935,-0.7636507899358612
2017-11-24 14:37:34.926 -0800,223,C4D50155-580C-4885-BACB-A13DEF47355A,1511563053.994315,49.27909266342318,-122.9164786369441,346.2995,0.3549847,112.438171135589,3,16,-9999,139659.8526359167,0.270172119140625,-0.3792572021484375,-0.856231689453125,139659.8215689167,1.777385988351722,-1.479927139872521,-0.6184019840829396
2017-11-24 14:37:34.955 -0800,224,C4D50155-580C-4885-BACB-A13DEF47355A,1511563053.994315,49.27909266342318,-122.9164786369441,346.2995,0.3549847,112.438171135589,3,16,-9999,139659.8856869167,0.18157958984375,-0.2811431884765625,-0.5661468505859375,139659.8546499167,1.594349323475557,-1.509263723492507,-0.5963313028650169
2017-11-24 14:37:34.990 -0800,225,C4D50155-580C-4885-BACB-A13DEF47355A,1511563053.994315,49.27909266342318,-122.9164786369441,346.2995,0.3549847,112.438171135589,3,16,-9999,139659.9187979167,0.210052490234375,-0.232421875,-0.52264404296875,139659.8877009167,1.458178701146498,-0.8777206373266802,-0.5537201927915311
2017-11-24 14:37:35.021 -0800,226,C4D50155-580C-4885-BACB-A13DEF47355A,1511563053.994315,49.27909266342318,-122.9164786369441,346.2995,0.3549847,112.438171135589,3,16,-9999,139659.9518179167,0.220123291015625,-0.19732666015625,-0.49969482421875,139659.9207819167,1.443453284531123,-0.6751025479034897,-0.5088358084115536
2017-11-24 14:37:35.055 -0800,227,C4D50155-580C-4885-BACB-A13DEF47355A,1511563053.994315,49.27909266342318,-122.9164786369441,346.2995,0.3549847,112.438171135589,3,16,-9999,139659.9849299167,0.1793975830078125,-0.16534423828125,-0.42120361328125,139659.9538329167,1.409597316541272,-0.9500334504056017,-0.3782487696239542
2017-11-24 14:37:35.088 -0800,228,C4D50155-580C-4885-BACB-A13DEF47355A,1511563053.994315,49.27909266342318,-122.9164786369441,346.2995,0.3549847,112.438171135589,3,16,-9999,139660.0179499167,0.3237152099609375,-0.0996551513671875,-0.5223541259765625,139659.9869139167,1.129456738314747,-0.7381499572339165,-0.4552343651515288
2017-11-24 14:37:35.121 -0800,229,C4D50155-580C-4885-BACB-A13DEF47355A,1511563053.994315,49.27909266342318,-122.9164786369441,346.2995,0.3549847,112.438171135589,3,16,-9999,139660.0510619167,0.3842315673828125,-0.1902618408203125,-0.5333099365234375,139660.0199639167,1.151915175787385,-0.352696537912971,-0.6836089507413117
2017-11-24 14:37:35.165 -0800,230,C4D50155-580C-4885-BACB-A13DEF47355A,1511563054.994295,49.2790940912296,-122.9164897349279,346.2456,0.3050367,113.6290009570024,3,16,-9999,139660.0840819167,0.5620880126953125,-0.190460205078125,-0.7854766845703125,139660.0530449167,0.8589746464136124,0.6061117619683329,-0.7207424710847226
2017-11-24 14:37:35.187 -0800,231,C4D50155-580C-4885-BACB-A13DEF47355A,1511563054.994295,49.2790940912296,-122.9164897349279,346.2456,0.3050367,113.6290009570024,3,16,-9999,139660.1171929167,0.727752685546875,-0.2472686767578125,-1.061508178710938,139660.0860959167,-0.2250000941725435,1.312277420826507,-0.917743953768936
2017-11-24 14:37:35.220 -0800,232,C4D50155-580C-4885-BACB-A13DEF47355A,1511563054.994295,49.2790940912296,-122.9164897349279,346.2456,0.3050367,113.6290009570024,3,16,-9999,139660.1502129167,0.6688690185546875,-0.409637451171875,-1.0316162109375,139660.1191769167,-0.722942242145128,0.8409434479371219,-0.7334606631865049
2017-11-24 14:37:35.254 -0800,233,C4D50155-580C-4885-BACB-A13DEF47355A,1511563054.994295,49.2790940912296,-122.9164897349279,346.2456,0.3050367,113.6290009570024,3,16,-9999,139660.1833249167,0.6249542236328125,-0.3916778564453125,-0.8958740234375,139660.1522269167,-0.8424164423360447,0.3894433672661023,-0.1954280871121947
2017-11-24 14:37:35.286 -0800,234,C4D50155-580C-4885-BACB-A13DEF47355A,1511563054.994295,49.2790940912296,-122.9164897349279,346.2456,0.3050367,113.6290009570024,3,16,-9999,139660.2163449167,0.5884246826171875,-0.4508209228515625,-0.7650604248046875,139660.1853079167,-1.360843625413519,0.1874364733130849,0.1295105890749894
2017-11-24 14:37:35.332 -0800,235,C4D50155-580C-4885-BACB-A13DEF47355A,1511563054.994295,49.2790940912296,-122.9164897349279,346.2456,0.3050367,113.6290009570024,3,16,-9999,139660.2494559167,0.722381591796875,-0.549591064453125,-0.96722412109375,139660.2183589167,-1.523114291689791,1.042863256522494,0.2040849585516062
2017-11-24 14:37:35.352 -0800,236,C4D50155-580C-4885-BACB-A13DEF47355A,1511563054.994295,49.2790940912296,-122.9164897349279,346.2456,0.3050367,113.6290009570024,3,16,-9999,139660.282466,0.8040618896484375,-0.5112457275390625,-1.185226440429688,139660.2514399167,-1.883326802831183,1.706380254735812,0.475542566360037
2017-11-24 14:37:35.386 -0800,237,C4D50155-580C-4885-BACB-A13DEF47355A,1511563054.994295,49.2790940912296,-122.9164897349279,346.2456,0.3050367,113.6290009570024,3,16,-9999,139660.315578,0.67205810546875,-0.49169921875,-0.9739990234375,139660.284481,-1.919362568173264,1.103735129558435,0.518090293199579
2017-11-24 14:37:35.418 -0800,238,C4D50155-580C-4885-BACB-A13DEF47355A,1511563054.994295,49.2790940912296,-122.9164897349279,346.2456,0.3050367,113.6290009570024,3,16,-9999,139660.348598,0.4564666748046875,-0.439666748046875,-0.682373046875,139660.317562,-0.9596751588161246,0.6961652226488173,0.6029093107575126
2017-11-24 14:37:35.452 -0800,239,C4D50155-580C-4885-BACB-A13DEF47355A,1511563054.994295,49.2790940912296,-122.9164897349279,346.2456,0.3050367,113.6290009570024,3,16,-9999,139660.38171,0.2993621826171875,-0.405120849609375,-0.546173095703125,139660.350612,-0.7922864295569383,0.6713051465051456,0.6580553874497834
2017-11-24 14:37:35.487 -0800,240,C4D50155-580C-4885-BACB-A13DEF47355A,1511563054.994295,49.2790940912296,-122.9164897349279,346.2456,0.3050367,113.6290009570024,3,16,-9999,139660.41473,0.25152587890625,-0.4016265869140625,-0.4447784423828125,139660.383693,-1.500792740697183,0.3927134627686106,0.6932101791032654
2017-11-24 14:37:35.518 -0800,241,C4D50155-580C-4885-BACB-A13DEF47355A,1511563054.994295,49.2790940912296,-122.9164897349279,346.2456,0.3050367,113.6290009570024,3,16,-9999,139660.447841,0.2345428466796875,-0.3799285888671875,-0.4130401611328125,139660.416744,-1.240039975206434,0.5342839105239148,0.7111332532394986
2017-11-24 14:37:35.573 -0800,242,C4D50155-580C-4885-BACB-A13DEF47355A,1511563054.994295,49.2790940912296,-122.9164897349279,346.2456,0.3050367,113.6290009570024,3,16,-9999,139660.480892,0.174713134765625,-0.375152587890625,-0.42291259765625,139660.449825,-0.3967169928353267,0.7413777084750925,0.7474262799428805
2017-11-24 14:37:35.584 -0800,243,C4D50155-580C-4885-BACB-A13DEF47355A,1511563054.994295,49.2790940912296,-122.9164897349279,346.2456,0.3050367,113.6290009570024,3,16,-9999,139660.513973,0.157562255859375,-0.409698486328125,-0.542144775390625,139660.482875,-0.4105979210690377,0.7192212734700693,0.6864958173629576
2017-11-24 14:37:35.616 -0800,244,C4D50155-580C-4885-BACB-A13DEF47355A,1511563054.994295,49.2790940912296,-122.9164897349279,346.2456,0.3050367,113.6290009570024,3,16,-9999,139660.547023,0.19952392578125,-0.4520721435546875,-0.6996307373046875,139660.515987,-0.6932722307566642,0.5205531845756842,0.5723133182580283
2017-11-24 14:37:35.653 -0800,245,C4D50155-580C-4885-BACB-A13DEF47355A,1511563054.994295,49.2790940912296,-122.9164897349279,346.2456,0.3050367,113.6290009570024,3,16,-9999,139660.580104,0.268463134765625,-0.5808868408203125,-0.905792236328125,139660.549007,-0.2030844089300635,0.5090667044780635,0.4356436195406879
2017-11-24 14:37:35.683 -0800,246,C4D50155-580C-4885-BACB-A13DEF47355A,1511563054.994295,49.2790940912296,-122.9164897349279,346.2456,0.3050367,113.6290009570024,3,16,-9999,139660.613155,0.264068603515625,-0.6329803466796875,-0.91748046875,139660.582118,0.3291003980226508,0.2384828798232877,0.373571193485339
2017-11-24 14:37:35.732 -0800,247,C4D50155-580C-4885-BACB-A13DEF47355A,1511563054.994295,49.2790940912296,-122.9164897349279,346.2456,0.3050367,113.6290009570024,3,16,-9999,139660.646236,0.2415924072265625,-0.73883056640625,-0.96002197265625,139660.615138,0.2217539671198459,-0.1906043034297341,0.1227525514928043
2017-11-24 14:37:35.749 -0800,248,C4D50155-580C-4885-BACB-A13DEF47355A,1511563054.994295,49.2790940912296,-122.9164897349279,346.2456,0.3050367,113.6290009570024,3,16,-9999,139660.679286,0.23370361328125,-0.7642669677734375,-1.041976928710938,139660.64825,-0.2869058063436534,-0.5543734662069275,0.06248841181761924
2017-11-24 14:37:35.783 -0800,249,C4D50155-580C-4885-BACB-A13DEF47355A,1511563054.994295,49.2790940912296,-122.9164897349279,346.2456,0.3050367,113.6290009570024,3,16,-9999,139660.712368,0.2723388671875,-0.72344970703125,-1.167526245117188,139660.68127,-0.6866180564569923,-0.7995914804270255,0.0289847800399864
2017-11-24 14:37:35.815 -0800,250,C4D50155-580C-4885-BACB-A13DEF47355A,1511563054.994295,49.2790940912296,-122.9164897349279,346.2456,0.3050367,113.6290009570024,3,16,-9999,139660.745418,0.3941650390625,-0.6903839111328125,-1.250411987304688,139660.714382,-0.1712846676178633,-0.8456564441182352,-0.425295108176858
2017-11-24 14:37:35.849 -0800,251,C4D50155-580C-4885-BACB-A13DEF47355A,1511563054.994295,49.2790940912296,-122.9164897349279,346.2456,0.3050367,113.6290009570024,3,16,-9999,139660.778499,0.289947509765625,-0.6498870849609375,-1.061416625976562,139660.747402,1.019487892686541,-1.420027586950568,-0.5291040622037106
2017-11-24 14:37:35.882 -0800,252,C4D50155-580C-4885-BACB-A13DEF47355A,1511563054.994295,49.2790940912296,-122.9164897349279,346.2456,0.3050367,113.6290009570024,3,16,-9999,139660.81155,0.2843780517578125,-0.6520843505859375,-1.045822143554688,139660.780513,0.9889491581504937,-1.1778615553397,-0.6492616295303417
2017-11-24 14:37:35.915 -0800,253,C4D50155-580C-4885-BACB-A13DEF47355A,1511563054.994295,49.2790940912296,-122.9164897349279,346.2456,0.3050367,113.6290009570024,3,16,-9999,139660.844631,0.4268798828125,-0.6605224609375,-1.41351318359375,139660.813533,0.3359740167961454,0.02377430536724637,-0.76159216641323
2017-11-24 14:37:35.947 -0800,254,C4D50155-580C-4885-BACB-A13DEF47355A,1511563054.994295,49.2790940912296,-122.9164897349279,346.2456,0.3050367,113.6290009570024,3,16,-9999,139660.877681,0.489776611328125,-0.475372314453125,-1.512252807617188,139660.846645,0.4592115299234531,0.2883436470161872,-0.4949239875091977
2017-11-24 14:37:35.981 -0800,255,C4D50155-580C-4885-BACB-A13DEF47355A,1511563054.994295,49.2790940912296,-122.9164897349279,346.2456,0.3050367,113.6290009570024,3,16,-9999,139660.910762,0.2783660888671875,-0.3824920654296875,-0.89373779296875,139660.879665,1.219837235177093,-1.309388423675989,-0.3198754743227254
2017-11-24 14:37:36.013 -0800,256,C4D50155-580C-4885-BACB-A13DEF47355A,1511563054.994295,49.2790940912296,-122.9164897349279,346.2456,0.3050367,113.6290009570024,3,16,-9999,139660.943813,0.17218017578125,-0.3607330322265625,-0.5685882568359375,139660.912776,1.454331498635769,-1.514531988760901,-0.4191975345450126
2017-11-24 14:37:36.047 -0800,257,C4D50155-580C-4885-BACB-A13DEF47355A,1511563054.994295,49.2790940912296,-122.9164897349279,346.2456,0.3050367,113.6290009570024,3,16,-9999,139660.976894,0.2183990478515625,-0.33392333984375,-0.61474609375,139660.945796,1.338252296202486,-0.6357647291258202,-0.4096511673015145
2017-11-24 14:37:36.079 -0800,258,C4D50155-580C-4885-BACB-A13DEF47355A,1511563054.994295,49.2790940912296,-122.9164897349279,346.2456,0.3050367,113.6290009570024,3,16,-9999,139661.009944,0.25909423828125,-0.218109130859375,-0.68060302734375,139660.978908,1.233644926480827,-0.5658807189610509,-0.1668070948771131
2017-11-24 14:37:36.122 -0800,259,C4D50155-580C-4885-BACB-A13DEF47355A,1511563054.994295,49.2790940912296,-122.9164897349279,346.2456,0.3050367,113.6290009570024,3,16,-9999,139661.043025,0.2710723876953125,-0.1972808837890625,-0.561859130859375,139661.011928,1.08013765808757,-1.195677304084003,-0.2371017644819726
2017-11-24 14:37:36.145 -0800,260,C4D50155-580C-4885-BACB-A13DEF47355A,1511563054.994295,49.2790940912296,-122.9164897349279,346.2456,0.3050367,113.6290009570024,3,16,-9999,139661.076076,0.36138916015625,-0.2064056396484375,-0.5655975341796875,139661.04504,1.368055998277671,-0.8459999918988554,-0.3532411543558922
2017-11-24 14:37:36.179 -0800,261,C4D50155-580C-4885-BACB-A13DEF47355A,1511563055.994292,49.27909588644198,-122.916482372244,346.1818,0.3832372,80.29301961832617,3,16,-9999,139661.109157,0.4647216796875,-0.2175445556640625,-0.6870574951171875,139661.07809,1.649426956927813,0.07867883334864696,-0.4138749407903802
2017-11-24 14:37:36.211 -0800,262,C4D50155-580C-4885-BACB-A13DEF47355A,1511563055.994292,49.27909588644198,-122.916482372244,346.1818,0.3832372,80.29301961832617,3,16,-9999,139661.142208,0.6517181396484375,-0.2440032958984375,-0.858489990234375,139661.111171,1.12493282657103,0.664593980558146,-0.4976649129031072
2017-11-24 14:37:36.246 -0800,263,C4D50155-580C-4885-BACB-A13DEF47355A,1511563055.994292,49.27909588644198,-122.916482372244,346.1818,0.3832372,80.29301961832617,3,16,-9999,139661.175289,0.7228546142578125,-0.283355712890625,-0.986328125,139661.144222,0.3030794499598137,1.016467601694282,-0.4418136311541835
2017-11-24 14:37:36.283 -0800,264,C4D50155-580C-4885-BACB-A13DEF47355A,1511563055.994292,49.27909588644198,-122.916482372244,346.1818,0.3832372,80.29301961832617,3,16,-9999,139661.208339,0.685882568359375,-0.27679443359375,-0.902679443359375,139661.177303,-0.3996946732501443,0.5558539174569026,-0.03476117644436826
2017-11-24 14:37:36.310 -0800,265,C4D50155-580C-4885-BACB-A13DEF47355A,1511563055.994292,49.27909588644198,-122.916482372244,346.1818,0.3832372,80.29301961832617,3,16,-9999,139661.239437,0.6705169677734375,-0.25604248046875,-0.797943115234375,139661.210353,-0.7627849962654765,0.1987096342073903,0.2150374748506661
2017-11-24 14:37:36.340 -0800,266,C4D50155-580C-4885-BACB-A13DEF47355A,1511563055.994292,49.27909588644198,-122.916482372244,346.1818,0.3832372,80.29301961832617,3,16,-9999,139661.269496,0.638885498046875,-0.3054046630859375,-0.7434234619140625,139661.24142,-0.9473391303307686,0.2392522670622116,0.3350922441592201
2017-11-24 14:37:36.370 -0800,267,C4D50155-580C-4885-BACB-A13DEF47355A,1511563055.994292,49.27909588644198,-122.916482372244,346.1818,0.3832372,80.29301961832617,3,16,-9999,139661.2995541667,0.669952392578125,-0.364715576171875,-0.7870635986328125,139661.27148,-1.379647140606132,0.655220718785503,0.2377068346816386
2017-11-24 14:37:36.400 -0800,268,C4D50155-580C-4885-BACB-A13DEF47355A,1511563055.994292,49.27909588644198,-122.916482372244,346.1818,0.3832372,80.29301961832617,3,16,-9999,139661.3296141667,0.6966094970703125,-0.484527587890625,-0.9819183349609375,139661.3015381667,-1.94332222955238,1.302845036877664,0.1001657496556243
2017-11-24 14:37:36.443 -0800,269,C4D50155-580C-4885-BACB-A13DEF47355A,1511563055.994292,49.27909588644198,-122.916482372244,346.1818,0.3832372,80.29301961832617,3,16,-9999,139661.3596741667,0.701507568359375,-0.4833526611328125,-1.10296630859375,139661.3315981667,-2.233295997471804,1.516510983766939,0.256976403065016
2017-11-24 14:37:36.460 -0800,270,C4D50155-580C-4885-BACB-A13DEF47355A,1511563055.994292,49.27909588644198,-122.916482372244,346.1818,0.3832372,80.29301961832617,3,16,-9999,139661.3897341667,0.5269012451171875,-0.458160400390625,-0.8448944091796875,139661.3616571667,-1.815101143077207,0.6761563607468339,0.3605217041439507
2017-11-24 14:37:36.490 -0800,271,C4D50155-580C-4885-BACB-A13DEF47355A,1511563055.994292,49.27909588644198,-122.916482372244,346.1818,0.3832372,80.29301961832617,3,16,-9999,139661.4197931667,0.33087158203125,-0.47979736328125,-0.60308837890625,139661.3917171667,-1.454980777309531,0.2784926141439841,0.3885520072492528
2017-11-24 14:37:36.527 -0800,272,C4D50155-580C-4885-BACB-A13DEF47355A,1511563055.994292,49.27909588644198,-122.916482372244,346.1818,0.3832372,80.29301961832617,3,16,-9999,139661.4498531667,0.300811767578125,-0.462646484375,-0.5094451904296875,139661.4217771667,-1.392566135054107,0.4957274632100746,0.4763745378845778
2017-11-24 14:37:36.550 -0800,273,C4D50155-580C-4885-BACB-A13DEF47355A,1511563055.994292,49.27909588644198,-122.916482372244,346.1818,0.3832372,80.29301961832617,3,16,-9999,139661.4799131667,0.2884368896484375,-0.4745025634765625,-0.4416656494140625,139661.4518371667,-0.9751404015823237,0.747577547492797,0.3124074379939252
2017-11-24 14:37:36.580 -0800,274,C4D50155-580C-4885-BACB-A13DEF47355A,1511563055.994292,49.27909588644198,-122.916482372244,346.1818,0.3832372,80.29301961832617,3,16,-9999,139661.5099731667,0.2278594970703125,-0.452301025390625,-0.3553619384765625,139661.4818971667,-0.2983920201251652,0.7872045855648491,0.4749667909323619
2017-11-24 14:37:36.612 -0800,275,C4D50155-580C-4885-BACB-A13DEF47355A,1511563055.994292,49.27909588644198,-122.916482372244,346.1818,0.3832372,80.29301961832617,3,16,-9999,139661.5400331667,0.201904296875,-0.4456329345703125,-0.3853302001953125,139661.5119571667,-0.2626734372689135,0.8622098545058408,0.6353354275580995
2017-11-24 14:37:36.641 -0800,276,C4D50155-580C-4885-BACB-A13DEF47355A,1511563055.994292,49.27909588644198,-122.916482372244,346.1818,0.3832372,80.29301961832617,3,16,-9999,139661.5700931667,0.2094573974609375,-0.463104248046875,-0.530792236328125,139661.5420161667,-0.8228936073330009,0.7913295557772728,0.6184291483260584
2017-11-24 14:37:36.691 -0800,277,C4D50155-580C-4885-BACB-A13DEF47355A,1511563055.994292,49.27909588644198,-122.916482372244,346.1818,0.3832372,80.29301961832617,3,16,-9999,139661.6001521667,0.2008209228515625,-0.4682159423828125,-0.6179656982421875,139661.5720761667,-0.8985952928990483,0.5124015147950607,0.6493260780287217
2017-11-24 14:37:36.701 -0800,278,C4D50155-580C-4885-BACB-A13DEF47355A,1511563055.994292,49.27909588644198,-122.916482372244,346.1818,0.3832372,80.29301961832617,3,16,-9999,139661.6302121667,0.178558349609375,-0.4434814453125,-0.7159423828125,139661.6021361667,-0.5059777039296806,0.4000829621370778,0.6754548841157071
2017-11-24 14:37:36.731 -0800,279,C4D50155-580C-4885-BACB-A13DEF47355A,1511563055.994292,49.27909588644198,-122.916482372244,346.1818,0.3832372,80.29301961832617,3,16,-9999,139661.6602721667,0.211151123046875,-0.528106689453125,-0.8344573974609375,139661.6321961667,-0.1633244791196165,0.4020547666081725,0.2808468485476142
2017-11-24 14:37:36.774 -0800,280,C4D50155-580C-4885-BACB-A13DEF47355A,1511563055.994292,49.27909588644198,-122.916482372244,346.1818,0.3832372,80.29301961832617,3,16,-9999,139661.6903321667,0.287139892578125,-0.6676025390625,-0.962860107421875,139661.6622861667,0.116186527825214,0.4456845357986137,-0.2030995889482769
2017-11-24 14:37:36.791 -0800,281,C4D50155-580C-4885-BACB-A13DEF47355A,1511563055.994292,49.27909588644198,-122.916482372244,346.1818,0.3832372,80.29301961832617,3,16,-9999,139661.7203921667,0.3307342529296875,-0.78594970703125,-1.132171630859375,139661.6923461667,0.2552085967334213,0.4721720696844328,-0.378073533624227
2017-11-24 14:37:36.821 -0800,282,C4D50155-580C-4885-BACB-A13DEF47355A,1511563055.994292,49.27909588644198,-122.916482372244,346.1818,0.3832372,80.29301961832617,3,16,-9999,139661.7504511667,0.3750762939453125,-0.789642333984375,-1.32012939453125,139661.7224061667,-0.176551334989604,0.15897473811119,-0.3176804969522821
2017-11-24 14:37:36.851 -0800,283,C4D50155-580C-4885-BACB-A13DEF47355A,1511563055.994292,49.27909588644198,-122.916482372244,346.1818,0.3832372,80.29301961832617,3,16,-9999,139661.7805111667,0.36651611328125,-0.73309326171875,-1.344100952148438,139661.7524661667,-0.3957667769583864,-0.7765114611559629,-0.2187009192461791
2017-11-24 14:37:36.881 -0800,284,C4D50155-580C-4885-BACB-A13DEF47355A,1511563055.994292,49.27909588644198,-122.916482372244,346.1818,0.3832372,80.29301961832617,3,16,-9999,139661.8105711667,0.3087921142578125,-0.6816864013671875,-1.2264404296875,139661.7825251667,0.05833707631040373,-1.524363846873256,-0.2918760638860683
2017-11-24 14:37:36.928 -0800,285,C4D50155-580C-4885-BACB-A13DEF47355A,1511563055.994292,49.27909588644198,-122.916482372244,346.1818,0.3832372,80.29301961832617,3,16,-9999,139661.8406311667,0.350372314453125,-0.59136962890625,-1.165740966796875,139661.8125851667,0.4818902108182409,-1.506934789119232,-0.5062807716617316
2017-11-24 14:37:36.941 -0800,286,C4D50155-580C-4885-BACB-A13DEF47355A,1511563055.994292,49.27909588644198,-122.916482372244,346.1818,0.3832372,80.29301961832617,3,16,-9999,139661.8706911667,0.413330078125,-0.6411285400390625,-1.295608520507812,139661.8426451667,0.8683921166603507,-0.7315562366909893,-0.9141651978960875
2017-11-24 14:37:36.971 -0800,287,C4D50155-580C-4885-BACB-A13DEF47355A,1511563055.994292,49.27909588644198,-122.916482372244,346.1818,0.3832372,80.29301961832617,3,16,-9999,139661.9007511667,0.4942779541015625,-0.6904449462890625,-1.522720336914062,139661.8727051667,1.186479011994979,-0.1104170556396663,-0.9705986466593026
2017-11-24 14:37:37.012 -0800,288,C4D50155-580C-4885-BACB-A13DEF47355A,1511563055.994292,49.27909588644198,-122.916482372244,346.1818,0.3832372,80.29301961832617,3,16,-9999,139661.9308101667,0.5059967041015625,-0.552093505859375,-1.393234252929688,139661.9027651667,1.207943824064909,-0.584237355722749,-0.6097493737012721
2017-11-24 14:37:37.031 -0800,289,C4D50155-580C-4885-BACB-A13DEF47355A,1511563055.994292,49.27909588644198,-122.916482372244,346.1818,0.3832372,80.29301961832617,3,16,-9999,139661.9608701667,0.3692626953125,-0.4262237548828125,-0.9562530517578125,139661.9328241667,1.391370908356879,-1.493267180088837,-0.3575623995406547
2017-11-24 14:37:37.061 -0800,290,C4D50155-580C-4885-BACB-A13DEF47355A,1511563055.994292,49.27909588644198,-122.916482372244,346.1818,0.3832372,80.29301961832617,3,16,-9999,139661.9909301667,0.2738189697265625,-0.354461669921875,-0.685546875,139661.9628841667,1.569640248565693,-1.462009924690686,-0.2425228951969379
2017-11-24 14:37:37.091 -0800,291,C4D50155-580C-4885-BACB-A13DEF47355A,1511563055.994292,49.27909588644198,-122.916482372244,346.1818,0.3832372,80.29301961832617,3,16,-9999,139662.0209901667,0.296417236328125,-0.3069610595703125,-0.6857452392578125,139661.9929441667,1.520311580958591,-0.8858611218307254,-0.181424120836122
2017-11-24 14:37:37.121 -0800,292,C4D50155-580C-4885-BACB-A13DEF47355A,1511563055.994292,49.27909588644198,-122.916482372244,346.1818,0.3832372,80.29301961832617,3,16,-9999,139662.0510501667,0.332733154296875,-0.223114013671875,-0.6683502197265625,139662.0230041667,1.44872341401228,-0.9060321702430946,-0.07112664112940026
2017-11-24 14:37:37.166 -0800,293,C4D50155-580C-4885-BACB-A13DEF47355A,1511563056.994272,49.27909501041386,-122.9164788106262,346.2014,0.6006205,115.4088184811135,3,16,-9999,139662.0811091667,0.3155059814453125,-0.2046661376953125,-0.5495147705078125,139662.0530641667,1.504099321506625,-1.36237867146584,-0.08077580639097535
2017-11-24 14:37:37.181 -0800,294,C4D50155-580C-4885-BACB-A13DEF47355A,1511563056.994272,49.27909501041386,-122.9164788106262,346.2014,0.6006205,115.4088184811135,3,16,-9999,139662.1111691667,0.34710693359375,-0.140350341796875,-0.457489013671875,139662.0831241667,1.657016167086212,-1.307626742614901,-0.0278321639202001
2017-11-24 14:37:37.212 -0800,295,C4D50155-580C-4885-BACB-A13DEF47355A,1511563056.994272,49.27909501041386,-122.9164788106262,346.2014,0.6006205,115.4088184811135,3,16,-9999,139662.1412291667,0.464874267578125,-0.1165771484375,-0.542877197265625,139662.1131831667,1.697935104603062,-0.6539503909455353,-0.1435491764452331
2017-11-24 14:37:37.244 -0800,296,C4D50155-580C-4885-BACB-A13DEF47355A,1511563056.994272,49.27909501041386,-122.9164788106262,346.2014,0.6006205,115.4088184811135,3,16,-9999,139662.1712891667,0.479736328125,-0.16094970703125,-0.579559326171875,139662.1432431667,1.559000653694718,-0.2312124500473714,-0.2365595448840325
2017-11-24 14:37:37.272 -0800,297,C4D50155-580C-4885-BACB-A13DEF47355A,1511563056.994272,49.27909501041386,-122.9164788106262,346.2014,0.6006205,115.4088184811135,3,16,-9999,139662.2013491667,0.59490966796875,-0.1855010986328125,-0.7046356201171875,139662.1733031667,0.9278839396194127,0.4282099379899497,-0.3593658922308564
2017-11-24 14:37:37.302 -0800,298,C4D50155-580C-4885-BACB-A13DEF47355A,1511563056.994272,49.27909501041386,-122.9164788106262,346.2014,0.6006205,115.4088184811135,3,16,-9999,139662.2314081667,0.675048828125,-0.23101806640625,-0.869049072265625,139662.2033631667,0.1754439926083491,1.022085806329914,-0.4611753449112775
2017-11-24 14:37:37.332 -0800,299,C4D50155-580C-4885-BACB-A13DEF47355A,1511563056.994272,49.27909501041386,-122.9164788106262,346.2014,0.6006205,115.4088184811135,3,16,-9999,139662.2614681667,0.71484375,-0.2900238037109375,-0.89129638671875,139662.2334231667,-0.3317406559273554,1.039004336102969,-0.3822365870402388
2017-11-24 14:37:37.362 -0800,300,C4D50155-580C-4885-BACB-A13DEF47355A,1511563056.994272,49.27909501041386,-122.9164788106262,346.2014,0.6006205,115.4088184811135,3,16,-9999,139662.291507625,0.6966705322265625,-0.334381103515625,-0.78326416015625,139662.2634821667,-0.4180624952884208,0.6399176625296897,-0.1657104051402185
2017-11-24 14:37:37.403 -0800,301,C4D50155-580C-4885-BACB-A13DEF47355A,1511563056.994272,49.27909501041386,-122.9164788106262,346.2014,0.6006205,115.4088184811135,3,16,-9999,139662.321567625,0.6480255126953125,-0.366607666015625,-0.6822509765625,139662.293521625,-0.7386141462119173,0.4885033724371257,0.09281542504700557
2017-11-24 14:37:37.422 -0800,302,C4D50155-580C-4885-BACB-A13DEF47355A,1511563056.994272,49.27909501041386,-122.9164788106262,346.2014,0.6006205,115.4088184811135,3,16,-9999,139662.351627625,0.699737548828125,-0.4232635498046875,-0.6856231689453125,139662.323581625,-1.319817362504739,0.7092687741603342,0.1932118044530307
2017-11-24 14:37:37.452 -0800,303,C4D50155-580C-4885-BACB-A13DEF47355A,1511563056.994272,49.27909501041386,-122.9164788106262,346.2014,0.6006205,115.4088184811135,3,16,-9999,139662.381687625,0.73675537109375,-0.5405120849609375,-0.8571624755859375,139662.353641625,-1.762341791353865,1.307628340511555,0.1779684030056352
2017-11-24 14:37:37.487 -0800,304,C4D50155-580C-4885-BACB-A13DEF47355A,1511563056.994272,49.27909501041386,-122.9164788106262,346.2014,0.6006205,115.4088184811135,3,16,-9999,139662.411746625,0.7613372802734375,-0.535491943359375,-1.046127319335938,139662.383701625,-2.313380180927686,1.72137331904074,0.3166109714585063
2017-11-24 14:37:37.512 -0800,305,C4D50155-580C-4885-BACB-A13DEF47355A,1511563056.994272,49.27909501041386,-122.9164788106262,346.2014,0.6006205,115.4088184811135,3,16,-9999,139662.441806625,0.62921142578125,-0.4672088623046875,-0.97113037109375,139662.413761625,-2.388739383977549,1.145085499171877,0.5244041155119388
2017-11-24 14:37:37.542 -0800,306,C4D50155-580C-4885-BACB-A13DEF47355A,1511563056.994272,49.27909501041386,-122.9164788106262,346.2014,0.6006205,115.4088184811135,3,16,-9999,139662.471866625,0.44927978515625,-0.45233154296875,-0.6806488037109375,139662.443820625,-2.184025919408684,0.3561048514760544,0.6464615819602324
2017-11-24 14:37:37.572 -0800,307,C4D50155-580C-4885-BACB-A13DEF47355A,1511563056.994272,49.27909501041386,-122.9164788106262,346.2014,0.6006205,115.4088184811135,3,16,-9999,139662.501926625,0.3469696044921875,-0.5200653076171875,-0.496124267578125,139662.473880625,-1.676261767019779,0.3753762840721948,0.492111156765856
2017-11-24 14:37:37.602 -0800,308,C4D50155-580C-4885-BACB-A13DEF47355A,1511563056.994272,49.27909501041386,-122.9164788106262,346.2014,0.6006205,115.4088184811135,3,16,-9999,139662.531986625,0.2840576171875,-0.5116424560546875,-0.4558868408203125,139662.503940625,-0.7737172725402518,0.8986019508017735,0.4770856018956289
2017-11-24 14:37:37.648 -0800,309,C4D50155-580C-4885-BACB-A13DEF47355A,1511563056.994272,49.27909501041386,-122.9164788106262,346.2014,0.6006205,115.4088184811135,3,16,-9999,139662.562045625,0.2138824462890625,-0.507598876953125,-0.4484405517578125,139662.534000625,-0.5243833428554362,0.9827815433819791,0.5733594079342114
2017-11-24 14:37:37.662 -0800,310,C4D50155-580C-4885-BACB-A13DEF47355A,1511563056.994272,49.27909501041386,-122.9164788106262,346.2014,0.6006205,115.4088184811135,3,16,-9999,139662.592105625,0.168609619140625,-0.51617431640625,-0.5447845458984375,139662.564060625,-1.028643840514234,0.8267133792845016,0.6742687121661858
2017-11-24 14:37:37.692 -0800,311,C4D50155-580C-4885-BACB-A13DEF47355A,1511563056.994272,49.27909501041386,-122.9164788106262,346.2014,0.6006205,115.4088184811135,3,16,-9999,139662.622165625,0.1720428466796875,-0.4124755859375,-0.560699462890625,139662.594119625,-1.46225839762039,0.4570759410453186,0.8706214488088559
2017-11-24 14:37:37.723 -0800,312,C4D50155-580C-4885-BACB-A13DEF47355A,1511563056.994272,49.27909501041386,-122.9164788106262,346.2014,0.6006205,115.4088184811135,3,16,-9999,139662.652225625,0.1640777587890625,-0.443817138671875,-0.5576171875,139662.624179625,-1.155511508523428,0.2538690267051115,0.7875286922695117
2017-11-24 14:37:37.753 -0800,313,C4D50155-580C-4885-BACB-A13DEF47355A,1511563056.994272,49.27909501041386,-122.9164788106262,346.2014,0.6006205,115.4088184811135,3,16,-9999,139662.682285625,0.203369140625,-0.5426025390625,-0.7214202880859375,139662.654239625,-0.1538516151222046,0.6734431322282612,0.4178068318237732
2017-11-24 14:37:37.783 -0800,314,C4D50155-580C-4885-BACB-A13DEF47355A,1511563056.994272,49.27909501041386,-122.9164788106262,346.2014,0.6006205,115.4088184811135,3,16,-9999,139662.712345625,0.2578887939453125,-0.65130615234375,-0.8588409423828125,139662.684299625,0.5065771814910575,0.8165547513063943,0.2378618306570812
2017-11-24 14:37:37.813 -0800,315,C4D50155-580C-4885-BACB-A13DEF47355A,1511563056.994272,49.27909501041386,-122.9164788106262,346.2014,0.6006205,115.4088184811135,3,16,-9999,139662.742404625,0.2339019775390625,-0.7473907470703125,-0.9154205322265625,139662.714359625,0.3390406467913716,0.3149342452361924,0.3218270387695354
2017-11-24 14:37:37.843 -0800,316,C4D50155-580C-4885-BACB-A13DEF47355A,1511563056.994272,49.27909501041386,-122.9164788106262,346.2014,0.6006205,115.4088184811135,3,16,-9999,139662.772464625,0.200042724609375,-0.772247314453125,-1.000732421875,139662.744418625,-0.3958320244050934,-0.2181959839035001,0.3261019449513307
2017-11-24 14:37:37.884 -0800,317,C4D50155-580C-4885-BACB-A13DEF47355A,1511563056.994272,49.27909501041386,-122.9164788106262,346.2014,0.6006205,115.4088184811135,3,16,-9999,139662.802524625,0.16595458984375,-0.765167236328125,-1.098007202148438,139662.774478625,-0.7788779461006073,-0.4379443244064073,0.2653163583347081
2017-11-24 14:37:37.903 -0800,318,C4D50155-580C-4885-BACB-A13DEF47355A,1511563056.994272,49.27909501041386,-122.9164788106262,346.2014,0.6006205,115.4088184811135,3,16,-9999,139662.832584625,0.2279510498046875,-0.719024658203125,-1.33984375,139662.804538625,-0.49822790515755,-0.3152817877584477,0.1314786651205579
2017-11-24 14:37:37.933 -0800,319,C4D50155-580C-4885-BACB-A13DEF47355A,1511563056.994272,49.27909501041386,-122.9164788106262,346.2014,0.6006205,115.4088184811135,3,16,-9999,139662.862674625,0.2682647705078125,-0.751251220703125,-1.318954467773438,139662.834598625,0.106374377104926,-0.9176528736596553,-0.2363486225256982
2017-11-24 14:37:37.964 -0800,320,C4D50155-580C-4885-BACB-A13DEF47355A,1511563056.994272,49.27909501041386,-122.9164788106262,346.2014,0.6006205,115.4088184811135,3,16,-9999,139662.892734625,0.2302703857421875,-0.6681060791015625,-1.160110473632812,139662.864658625,0.7007128365262366,-1.658269983327421,-0.386678207106273
2017-11-24 14:37:37.993 -0800,321,C4D50155-580C-4885-BACB-A13DEF47355A,1511563056.994272,49.27909501041386,-122.9164788106262,346.2014,0.6006205,115.4088184811135,3,16,-9999,139662.922794625,0.3823089599609375,-0.5783843994140625,-1.132034301757812,139662.894718625,0.7299088052406663,-1.555086605840628,-0.5996565258020898
2017-11-24 14:37:38.023 -0800,322,C4D50155-580C-4885-BACB-A13DEF47355A,1511563056.994272,49.27909501041386,-122.9164788106262,346.2014,0.6006205,115.4088184811135,3,16,-9999,139662.952854625,0.5367431640625,-0.731414794921875,-1.348709106445312,139662.924777625,1.16883663503764,-0.417731730681033,-1.191814122606734
2017-11-24 14:37:38.054 -0800,323,C4D50155-580C-4885-BACB-A13DEF47355A,1511563056.994272,49.27909501041386,-122.9164788106262,346.2014,0.6006205,115.4088184811135,3,16,-9999,139662.982913625,0.591644287109375,-0.668853759765625,-1.495223999023438,139662.954837625,2.015363932832331,0.08923933233524718,-0.9069389765942666
2017-11-24 14:37:38.083 -0800,324,C4D50155-580C-4885-BACB-A13DEF47355A,1511563056.994272,49.27909501041386,-122.9164788106262,346.2014,0.6006205,115.4088184811135,3,16,-9999,139663.012973625,0.42791748046875,-0.5671844482421875,-1.083602905273438,139662.984897625,1.811370054390006,-1.161930525698846,-0.4670508109082104
2017-11-24 14:37:38.127 -0800,325,C4D50155-580C-4885-BACB-A13DEF47355A,1511563056.994272,49.27909501041386,-122.9164788106262,346.2014,0.6006205,115.4088184811135,3,16,-9999,139663.043033625,0.3489837646484375,-0.557403564453125,-0.7923431396484375,139663.014957625,1.581518745975774,-1.289785427524134,-0.4790520800445435
2017-11-24 14:37:38.143 -0800,326,C4D50155-580C-4885-BACB-A13DEF47355A,1511563056.994272,49.27909501041386,-122.9164788106262,346.2014,0.6006205,115.4088184811135,3,16,-9999,139663.073093625,0.361297607421875,-0.448089599609375,-0.77630615234375,139663.045017625,1.908553862573068,-0.3340067396989039,-0.1325034495080204
2017-11-24 14:37:38.174 -0800,327,C4D50155-580C-4885-BACB-A13DEF47355A,1511563057.994268,49.27909511867757,-122.9164610888243,346.224,0.6006205,121.0631222836168,3,16,-9999,139663.103153625,0.3385772705078125,-0.3133697509765625,-0.6778106689453125,139663.075076625,1.805577146386865,-0.3832067766253547,0.2696109719085699
2017-11-24 14:37:38.204 -0800,328,C4D50155-580C-4885-BACB-A13DEF47355A,1511563057.994268,49.27909511867757,-122.9164610888243,346.224,0.6006205,121.0631222836168,3,16,-9999,139663.133212625,0.2664337158203125,-0.2089996337890625,-0.53106689453125,139663.105136625,1.464605707805186,-1.073441405842675,0.4424416045392242
2017-11-24 14:37:38.233 -0800,329,C4D50155-580C-4885-BACB-A13DEF47355A,1511563057.994268,49.27909511867757,-122.9164610888243,346.224,0.6006205,121.0631222836168,3,16,-9999,139663.163272625,0.2354736328125,-0.1611175537109375,-0.42547607421875,139663.135196625,1.198361504146694,-1.307281596937627,0.4071781559132669
2017-11-24 14:37:38.264 -0800,330,C4D50155-580C-4885-BACB-A13DEF47355A,1511563057.994268,49.27909511867757,-122.9164610888243,346.224,0.6006205,121.0631222836168,3,16,-9999,139663.193332625,0.3094635009765625,-0.155548095703125,-0.407958984375,139663.165256625,1.252570414451366,-0.9146664048132405,0.3049026500420819
2017-11-24 14:37:38.294 -0800,331,C4D50155-580C-4885-BACB-A13DEF47355A,1511563057.994268,49.27909511867757,-122.9164610888243,346.224,0.6006205,121.0631222836168,3,16,-9999,139663.223392625,0.41265869140625,-0.22509765625,-0.55987548828125,139663.195316625,1.603701812591698,-0.1256058622847152,0.01976544897835009
2017-11-24 14:37:38.324 -0800,332,C4D50155-580C-4885-BACB-A13DEF47355A,1511563057.994268,49.27909511867757,-122.9164610888243,346.224,0.6006205,121.0631222836168,3,16,-9999,139663.253452625,0.4904327392578125,-0.25830078125,-0.6315765380859375,139663.225376625,1.454727510689864,0.3810751824888553,-0.138102479383803
2017-11-24 14:37:38.359 -0800,333,C4D50155-580C-4885-BACB-A13DEF47355A,1511563057.994268,49.27909511867757,-122.9164610888243,346.224,0.6006205,121.0631222836168,3,16,-9999,139663.2834879167,0.603240966796875,-0.3273773193359375,-0.7470550537109375,139663.255435625,0.4813471922719738,0.8217383280521245,-0.3337004761735448
2017-11-24 14:37:38.384 -0800,334,C4D50155-580C-4885-BACB-A13DEF47355A,1511563057.994268,49.27909511867757,-122.9164610888243,346.224,0.6006205,121.0631222836168,3,16,-9999,139663.3135479167,0.699310302734375,-0.33251953125,-0.9533233642578125,139663.2854719167,-0.1967282423563713,1.14463649021209,-0.272071200123585
2017-11-24 14:37:38.414 -0800,335,C4D50155-580C-4885-BACB-A13DEF47355A,1511563057.994268,49.27909511867757,-122.9164610888243,346.224,0.6006205,121.0631222836168,3,16,-9999,139663.3436079167,0.652984619140625,-0.338043212890625,-0.8178253173828125,139663.3155319167,-0.4213770655811334,0.56329851796811,-0.01493713792203643
2017-11-24 14:37:38.444 -0800,336,C4D50155-580C-4885-BACB-A13DEF47355A,1511563057.994268,49.27909511867757,-122.9164610888243,346.224,0.6006205,121.0631222836168,3,16,-9999,139663.3736679167,0.52008056640625,-0.39178466796875,-0.6472625732421875,139663.3455919167,-0.8020106959612536,0.1002696129381374,0.1194220022335512
2017-11-24 14:37:38.474 -0800,337,C4D50155-580C-4885-BACB-A13DEF47355A,1511563057.994268,49.27909511867757,-122.9164610888243,346.224,0.6006205,121.0631222836168,3,16,-9999,139663.4037279167,0.603179931640625,-0.446807861328125,-0.7631988525390625,139663.3756519167,-1.568487898762016,0.5605317599116267,-0.010620686427236
2017-11-24 14:37:38.504 -0800,338,C4D50155-580C-4885-BACB-A13DEF47355A,1511563057.994268,49.27909511867757,-122.9164610888243,346.224,0.6006205,121.0631222836168,3,16,-9999,139663.4337879167,0.715118408203125,-0.52044677734375,-0.920806884765625,139663.4057109167,-2.032700845212638,1.083782194039343,-0.1391789290964131
2017-11-24 14:37:38.534 -0800,339,C4D50155-580C-4885-BACB-A13DEF47355A,1511563057.994268,49.27909511867757,-122.9164610888243,346.224,0.6006205,121.0631222836168,3,16,-9999,139663.4638469167,0.7098541259765625,-0.6043548583984375,-1.045822143554688,139663.4357709167,-1.990217300555367,1.260154031971476,-0.3570526705080135
2017-11-24 14:37:38.564 -0800,340,C4D50155-580C-4885-BACB-A13DEF47355A,1511563057.994268,49.27909511867757,-122.9164610888243,346.224,0.6006205,121.0631222836168,3,16,-9999,139663.4939069167,0.616485595703125,-0.586700439453125,-0.90618896484375,139663.4658309167,-1.650701545825525,0.9303857131474331,-0.2930798126987841
2017-11-24 14:37:38.608 -0800,341,C4D50155-580C-4885-BACB-A13DEF47355A,1511563057.994268,49.27909511867757,-122.9164610888243,346.224,0.6006205,121.0631222836168,3,16,-9999,139663.5239669167,0.4834136962890625,-0.635406494140625,-0.6068267822265625,139663.4959209167,-1.428114275600593,0.4195549307633012,-0.3018970064358185
2017-11-24 14:37:38.624 -0800,342,C4D50155-580C-4885-BACB-A13DEF47355A,1511563057.994268,49.27909511867757,-122.9164610888243,346.224,0.6006205,121.0631222836168,3,16,-9999,139663.5540269167,0.3772125244140625,-0.686004638671875,-0.609649658203125,139663.5259809167,-1.163665841465142,0.7096362903907651,-0.2686580928705395
2017-11-24 14:37:38.654 -0800,343,C4D50155-580C-4885-BACB-A13DEF47355A,1511563057.994268,49.27909511867757,-122.9164610888243,346.224,0.6006205,121.0631222836168,3,16,-9999,139663.5840869167,0.3028717041015625,-0.596405029296875,-0.6305389404296875,139663.5560409167,-1.275847241326986,0.7900488416090536,0.03788240124194113
2017-11-24 14:37:38.687 -0800,344,C4D50155-580C-4885-BACB-A13DEF47355A,1511563057.994268,49.27909511867757,-122.9164610888243,346.224,0.6006205,121.0631222836168,3,16,-9999,139663.6141459167,0.19598388671875,-0.4958343505859375,-0.521270751953125,139663.5861009167,-1.406566639220762,0.2954718639898933,0.3171686373907688
2017-11-24 14:37:38.715 -0800,345,C4D50155-580C-4885-BACB-A13DEF47355A,1511563057.994268,49.27909511867757,-122.9164610888243,346.224,0.6006205,121.0631222836168,3,16,-9999,139663.6442059167,0.0866241455078125,-0.46209716796875,-0.4358673095703125,139663.6161609167,-1.355371095689515,-0.03579687979230008,0.3928253155343939
2017-11-24 14:37:38.745 -0800,346,C4D50155-580C-4885-BACB-A13DEF47355A,1511563057.994268,49.27909511867757,-122.9164610888243,346.224,0.6006205,121.0631222836168,3,16,-9999,139663.6742659167,0.1141815185546875,-0.4793853759765625,-0.4264068603515625,139663.6462199167,-1.12652726111566,0.076327528422216,0.2867196513834569
2017-11-24 14:37:38.775 -0800,347,C4D50155-580C-4885-BACB-A13DEF47355A,1511563057.994268,49.27909511867757,-122.9164610888243,346.224,0.6006205,121.0631222836168,3,16,-9999,139663.7043259167,0.0961456298828125,-0.590087890625,-0.47723388671875,139663.6762799167,-0.2897042560171087,0.2340942566629461,-0.01755182948027623
2017-11-24 14:37:38.805 -0800,348,C4D50155-580C-4885-BACB-A13DEF47355A,1511563057.994268,49.27909511867757,-122.9164610888243,346.224,0.6006205,121.0631222836168,3,16,-9999,139663.7343859167,0.053741455078125,-0.6892852783203125,-0.5706939697265625,139663.7063399167,0.2315195125210575,0.308366889988057,-0.08005835079330802
2017-11-24 14:37:38.841 -0800,349,C4D50155-580C-4885-BACB-A13DEF47355A,1511563057.994268,49.27909511867757,-122.9164610888243,346.224,0.6006205,121.0631222836168,3,16,-9999,139663.7644459167,0.098175048828125,-0.7476348876953125,-0.7173309326171875,139663.7363999167,0.07574243193072559,0.2790167242465117,-0.08832586808135
2017-11-24 14:37:38.865 -0800,350,C4D50155-580C-4885-BACB-A13DEF47355A,1511563057.994268,49.27909511867757,-122.9164610888243,346.224,0.6006205,121.0631222836168,3,16,-9999,139663.7945049167,0.1569671630859375,-0.856536865234375,-0.8277587890625,139663.7664599167,-0.02473570652076497,-0.04212694738730942,-0.1675309420613966
2017-11-24 14:37:38.895 -0800,351,C4D50155-580C-4885-BACB-A13DEF47355A,1511563057.994268,49.27909511867757,-122.9164610888243,346.224,0.6006205,121.0631222836168,3,16,-9999,139663.8245649167,0.218780517578125,-0.8944854736328125,-1.019790649414062,139663.7965189167,0.1440216212226131,-0.05636021183323791,-0.125096133252074
2017-11-24 14:37:38.925 -0800,352,C4D50155-580C-4885-BACB-A13DEF47355A,1511563057.994268,49.27909511867757,-122.9164610888243,346.224,0.6006205,121.0631222836168,3,16,-9999,139663.8546249167,0.2654876708984375,-0.9075775146484375,-1.13995361328125,139663.8265789167,0.1870591033866207,-0.2815238240967123,-0.03976259297153707
2017-11-24 14:37:38.955 -0800,353,C4D50155-580C-4885-BACB-A13DEF47355A,1511563057.994268,49.27909511867757,-122.9164610888243,346.224,0.6006205,121.0631222836168,3,16,-9999,139663.8846849167,0.359649658203125,-0.8353729248046875,-1.271072387695312,139663.8566389167,-2.370213370170522e-05,-0.4169759255636685,-0.003133475338587232
2017-11-24 14:37:38.985 -0800,354,C4D50155-580C-4885-BACB-A13DEF47355A,1511563057.994268,49.27909511867757,-122.9164610888243,346.224,0.6006205,121.0631222836168,3,16,-9999,139663.9147449167,0.4426116943359375,-0.738433837890625,-1.298812866210938,139663.8866989167,0.1913188295502024,-0.8470729795020483,-0.02934963310932725
2017-11-24 14:37:39.015 -0800,355,C4D50155-580C-4885-BACB-A13DEF47355A,1511563057.994268,49.27909511867757,-122.9164610888243,346.224,0.6006205,121.0631222836168,3,16,-9999,139663.9448039167,0.3911285400390625,-0.6736907958984375,-1.10211181640625,139663.9167589167,0.8538113096921668,-1.530581262754155,-0.1570114557555836
2017-11-24 14:37:39.045 -0800,356,C4D50155-580C-4885-BACB-A13DEF47355A,1511563057.994268,49.27909511867757,-122.9164610888243,346.224,0.6006205,121.0631222836168,3,16,-9999,139663.9748639167,0.2699737548828125,-0.544342041015625,-0.8986358642578125,139663.9468189167,0.909775243155201,-2.062438767208899,-0.05197212130511435
2017-11-24 14:37:39.090 -0800,357,C4D50155-580C-4885-BACB-A13DEF47355A,1511563057.994268,49.27909511867757,-122.9164610888243,346.224,0.6006205,121.0631222836168,3,16,-9999,139664.0049239167,0.4075927734375,-0.5039520263671875,-1.034652709960938,139663.9768779167,0.4582176382046356,-1.137649687092267,-0.5047638351048225
2017-11-24 14:37:39.105 -0800,358,C4D50155-580C-4885-BACB-A13DEF47355A,1511563057.994268,49.27909511867757,-122.9164610888243,346.224,0.6006205,121.0631222836168,3,16,-9999,139664.0349839167,0.5409698486328125,-0.61572265625,-1.338150024414062,139664.0069379167,1.067778193784621,0.3334842274930303,-1.055739374076918
2017-11-24 14:37:39.135 -0800,359,C4D50155-580C-4885-BACB-A13DEF47355A,1511563057.994268,49.27909511867757,-122.9164610888243,346.224,0.6006205,121.0631222836168,3,16,-9999,139664.0650439167,0.5079803466796875,-0.6063995361328125,-1.353118896484375,139664.0369979167,1.735926961765805,0.3603129123144885,-0.8380669676437273
2017-11-24 14:37:39.165 -0800,360,C4D50155-580C-4885-BACB-A13DEF47355A,1511563058.994248,49.27909434698316,-122.9164509916734,346.3084,0.6006205,118.3845543175696,3,16,-9999,139664.0951029167,0.3759002685546875,-0.538909912109375,-0.9138031005859375,139664.0670579167,1.587368911942351,-0.7867060418087862,-0.5883359606403811
2017-11-24 14:37:39.195 -0800,361,C4D50155-580C-4885-BACB-A13DEF47355A,1511563058.994248,49.27909434698316,-122.9164509916734,346.3084,0.6006205,118.3845543175696,3,16,-9999,139664.1251629167,0.2549896240234375,-0.4321441650390625,-0.596954345703125,139664.0971179167,1.736803674396659,-0.9804837679934587,-0.3680206331413959
2017-11-24 14:37:39.226 -0800,362,C4D50155-580C-4885-BACB-A13DEF47355A,1511563058.994248,49.27909434698316,-122.9164509916734,346.3084,0.6006205,118.3845543175696,3,16,-9999,139664.1552229167,0.1773529052734375,-0.3248748779296875,-0.453460693359375,139664.1271769167,1.683374271343053,-0.7898115539559276,-0.08990672050442103
2017-11-24 14:37:39.255 -0800,363,C4D50155-580C-4885-BACB-A13DEF47355A,1511563058.994248,49.27909434698316,-122.9164509916734,346.3084,0.6006205,118.3845543175696,3,16,-9999,139664.1852829167,0.13824462890625,-0.24951171875,-0.363922119140625,139664.1572369167,1.026329819843064,-0.8512522782007097,0.1030600731283224
2017-11-24 14:37:39.286 -0800,364,C4D50155-580C-4885-BACB-A13DEF47355A,1511563058.994248,49.27909434698316,-122.9164509916734,346.3084,0.6006205,118.3845543175696,3,16,-9999,139664.2153429167,0.1649627685546875,-0.2740478515625,-0.41943359375,139664.1872969167,0.611225563893503,-0.6697823509938383,-0.01052587789242918
2017-11-24 14:37:39.323 -0800,365,C4D50155-580C-4885-BACB-A13DEF47355A,1511563058.994248,49.27909434698316,-122.9164509916734,346.3084,0.6006205,118.3845543175696,3,16,-9999,139664.2454029167,0.2381591796875,-0.2950286865234375,-0.483367919921875,139664.2173569167,0.9171085235328431,-0.2937301566369815,-0.05501398390220286
2017-11-24 14:37:39.346 -0800,366,C4D50155-580C-4885-BACB-A13DEF47355A,1511563058.994248,49.27909434698316,-122.9164509916734,346.3084,0.6006205,118.3845543175696,3,16,-9999,139664.2754619167,0.3250732421875,-0.2615509033203125,-0.5171051025390625,139664.2474169167,0.9555288833149803,-0.1614147263019206,0.0917171374134569
2017-11-24 14:37:39.376 -0800,367,C4D50155-580C-4885-BACB-A13DEF47355A,1511563058.994248,49.27909434698316,-122.9164509916734,346.3084,0.6006205,118.3845543175696,3,16,-9999,139664.305536375,0.4763641357421875,-0.3531341552734375,-0.67108154296875,139664.277491375,0.3780937736485116,0.2265809465956146,-0.2338836006207208
2017-11-24 14:37:39.410 -0800,368,C4D50155-580C-4885-BACB-A13DEF47355A,1511563058.994248,49.27909434698316,-122.9164509916734,346.3084,0.6006205,118.3845543175696,3,16,-9999,139664.335596375,0.6425628662109375,-0.4127960205078125,-0.8527374267578125,139664.307550375,0.04196289666416054,0.7710186914076744,-0.5248685708060487
2017-11-24 14:37:39.436 -0800,369,C4D50155-580C-4885-BACB-A13DEF47355A,1511563058.994248,49.27909434698316,-122.9164509916734,346.3084,0.6006205,118.3845543175696,3,16,-9999,139664.365656375,0.868865966796875,-0.4577178955078125,-1.062545776367188,139664.337610375,-0.1619662669636761,1.323126340159163,-0.4762568261643963
2017-11-24 14:37:39.466 -0800,370,C4D50155-580C-4885-BACB-A13DEF47355A,1511563058.994248,49.27909434698316,-122.9164509916734,346.3084,0.6006205,118.3845543175696,3,16,-9999,139664.395716375,0.87689208984375,-0.4259185791015625,-1.033401489257812,139664.367670375,-0.1079690779656654,1.122012670435758,-0.1779593482579289
2017-11-24 14:37:39.496 -0800,371,C4D50155-580C-4885-BACB-A13DEF47355A,1511563058.994248,49.27909434698316,-122.9164509916734,346.3084,0.6006205,118.3845543175696,3,16,-9999,139664.425775375,0.7054901123046875,-0.447601318359375,-0.741973876953125,139664.397730375,-0.4574626320355981,0.1259270395121788,0.1864724089984762
