loggingTime(txt),loggingSample(N),identifierForVendor(txt),locationTimestamp_since1970(s),locationLatitude(WGS84),locationLongitude(WGS84),locationAltitude(m),locationSpeed(m/s),locationCourse(°),locationVerticalAccuracy(m),locationHorizontalAccuracy(m),locationFloor(Z),accelerometerTimestamp_sinceReboot(s),accelerometerAccelerationX(G),accelerometerAccelerationY(G),accelerometerAccelerationZ(G),gyroTimestamp_sinceReboot(s),gyroRotationX(rad/s),gyroRotationY(rad/s),gyroRotationZ(rad/s)
2017-11-24 14:35:44.768 -0800,1,C4D50155-580C-4885-BACB-A13DEF47355A,1511562943.993005,49.27919561046645,-122.9165715997204,345.3528,0.4025351,220.8208491495912,3,16,-9999,139549.6958687917,0.819976806640625,0.4490203857421875,-0.3237152099609375,139549.6698067917,-0.0133831834259752,0.02560789177776592,-0.07356822721678491
2017-11-24 14:35:44.798 -0800,2,C4D50155-580C-4885-BACB-A13DEF47355A,1511562943.993005,49.27919561046645,-122.9165715997204,345.3528,0.4025351,220.8208491495912,3,16,-9999,139549.7259287917,0.8269195556640625,0.4314117431640625,-0.3330535888671875,139549.6998667917,0.09796784280798188,0.0943286331783886,-0.07453495469248367
2017-11-24 14:35:44.828 -0800,3,C4D50155-580C-4885-BACB-A13DEF47355A,1511562943.993005,49.27919561046645,-122.9165715997204,345.3528,0.4025351,220.8208491495912,3,16,-9999,139549.7559877917,0.8146209716796875,0.434906005859375,-0.3211822509765625,139549.7299257917,0.1000658811147463,0.08362991613121327,-0.02028263486204348
2017-11-24 14:35:44.859 -0800,4,C4D50155-580C-4885-BACB-A13DEF47355A,1511562943.993005,49.27919561046645,-122.9165715997204,345.3528,0.4025351,220.8208491495912,3,16,-9999,139549.7860477917,0.8133087158203125,0.4367523193359375,-0.3135223388671875,139549.7599857917,0.06619766258388161,0.09857504353651994,-0.03044419231734982
2017-11-24 14:35:44.889 -0800,5,C4D50155-580C-4885-BACB-A13DEF47355A,1511562943.993005,49.27919561046645,-122.9165715997204,345.3528,0.4025351,220.8208491495912,3,16,-9999,139549.8161077917,0.8301544189453125,0.44158935546875,-0.351287841796875,139549.7900457917,-0.02983326316328564,0.1656036123805063,-0.01185053421863459
2017-11-24 14:35:44.922 -0800,6,C4D50155-580C-4885-BACB-A13DEF47355A,1511562943.993005,49.27919561046645,-122.9165715997204,345.3528,0.4025351,220.8208491495912,3,16,-9999,139549.8461677917,0.826416015625,0.44708251953125,-0.37750244140625,139549.8201057917,-0.1714479193926852,0.1107062749340489,0.01305108723804231
2017-11-24 14:35:44.949 -0800,7,C4D50155-580C-4885-BACB-A13DEF47355A,1511562943.993005,49.27919561046645,-122.9165715997204,345.3528,0.4025351,220.8208491495912,3,16,-9999,139549.8762277917,0.8140869140625,0.4493255615234375,-0.3671722412109375,139549.8501657917,-0.1862289960748429,-0.0006934871478566336,0.02952540174127248
2017-11-24 14:35:44.979 -0800,8,C4D50155-580C-4885-BACB-A13DEF47355A,1511562943.993005,49.27919561046645,-122.9165715997204,345.3528,0.4025351,220.8208491495912,3,16,-9999,139549.9062867917,0.8227691650390625,0.44537353515625,-0.3641815185546875,139549.8802247917,-0.06226337470550755,-0.01367959325530102,0.01583249268052107
2017-11-24 14:35:45.009 -0800,9,C4D50155-580C-4885-BACB-A13DEF47355A,1511562943.993005,49.27919561046645,-122.9165715997204,345.3528,0.4025351,220.8208491495912,3,16,-9999,139549.9363467917,0.82135009765625,0.4351959228515625,-0.3672943115234375,139549.9102847917,0.06488898522421667,0.001961418142843359,0.01077568240267861
2017-11-24 14:35:45.039 -0800,10,C4D50155-580C-4885-BACB-A13DEF47355A,1511562943.993005,49.27919561046645,-122.9165715997204,345.3528,0.4025351,220.8208491495912,3,16,-9999,139549.9664067917,0.8219146728515625,0.4413604736328125,-0.35076904296875,139549.9403447917,0.08312018709857211,-0.05330663132735305,0.0460753500194609
2017-11-24 14:35:45.069 -0800,11,C4D50155-580C-4885-BACB-A13DEF47355A,1511562943.993005,49.27919561046645,-122.9165715997204,345.3528,0.4025351,220.8208491495912,3,16,-9999,139549.9964667917,0.832916259765625,0.4381561279296875,-0.334320068359375,139549.9704047917,0.06706345625426637,-0.09145561499441111,0.03824192798910183
2017-11-24 14:35:45.099 -0800,12,C4D50155-580C-4885-BACB-A13DEF47355A,1511562943.993005,49.27919561046645,-122.9165715997204,345.3528,0.4025351,220.8208491495912,3,16,-9999,139550.0265267917,0.8191680908203125,0.4389801025390625,-0.3295135498046875,139550.0004647917,0.04872626056852578,-0.05643211718267005,0.05819433087597548
2017-11-24 14:35:45.129 -0800,13,C4D50155-580C-4885-BACB-A13DEF47355A,1511562943.993005,49.27919561046645,-122.9165715997204,345.3528,0.4025351,220.8208491495912,3,16,-9999,139550.0565867917,0.8231353759765625,0.4560089111328125,-0.331695556640625,139550.0305247917,-0.02099769361472975,-0.04570144220241378,0.08032892796006007
2017-11-24 14:35:45.165 -0800,14,C4D50155-580C-4885-BACB-A13DEF47355A,1511562944.992983,49.27919904834273,-122.9165731234083,345.3726,0.0605009,219.344025647251,3,16,-9999,139550.0866457917,0.80853271484375,0.47198486328125,-0.31817626953125,139550.0605837917,-0.07319565098028283,-0.07209310228899002,0.06866534764994903
2017-11-24 14:35:45.189 -0800,15,C4D50155-580C-4885-BACB-A13DEF47355A,1511562944.992983,49.27919904834273,-122.9165731234083,345.3726,0.0605009,219.344025647251,3,16,-9999,139550.1167057917,0.8126983642578125,0.4704132080078125,-0.3227691650390625,139550.0906437917,-0.0611222101784086,-0.04231150445085191,0.004085821744399567
2017-11-24 14:35:45.219 -0800,16,C4D50155-580C-4885-BACB-A13DEF47355A,1511562944.992983,49.27919904834273,-122.9165731234083,345.3726,0.0605009,219.344025647251,3,16,-9999,139550.1467657917,0.8291015625,0.457733154296875,-0.32000732421875,139550.1207037917,-0.0172317175172487,-0.01579760527024103,-0.05140540062514549
2017-11-24 14:35:45.251 -0800,17,C4D50155-580C-4885-BACB-A13DEF47355A,1511562944.992983,49.27919904834273,-122.9165731234083,345.3726,0.0605009,219.344025647251,3,16,-9999,139550.1768257917,0.8534088134765625,0.4474334716796875,-0.3323974609375,139550.1507637917,0.05237851968746044,0.04133918433686398,-0.04891747553479346
2017-11-24 14:35:45.279 -0800,18,C4D50155-580C-4885-BACB-A13DEF47355A,1511562944.992983,49.27919904834273,-122.9165731234083,345.3726,0.0605009,219.344025647251,3,16,-9999,139550.2068682917,0.88653564453125,0.4502716064453125,-0.341156005859375,139550.1808062917,0.01797527209359883,0.05200035081266919,-0.03251133795546932
2017-11-24 14:35:45.311 -0800,19,C4D50155-580C-4885-BACB-A13DEF47355A,1511562944.992983,49.27919904834273,-122.9165731234083,345.3726,0.0605009,219.344025647251,3,16,-9999,139550.2369272917,0.906005859375,0.46295166015625,-0.3504638671875,139550.2108652917,-0.106778911274509,0.03204741529357752,0.01299303032627859
2017-11-24 14:35:45.340 -0800,20,C4D50155-580C-4885-BACB-A13DEF47355A,1511562944.992983,49.27919904834273,-122.9165731234083,345.3726,0.0605009,219.344025647251,3,16,-9999,139550.2669872917,0.9426116943359375,0.4983367919921875,-0.375335693359375,139550.2409252917,-0.2356801690920883,0.0386275537149453,0.05954828197417177
2017-11-24 14:35:45.369 -0800,21,C4D50155-580C-4885-BACB-A13DEF47355A,1511562944.992983,49.27919904834273,-122.9165731234083,345.3726,0.0605009,219.344025647251,3,16,-9999,139550.2970472917,0.9546051025390625,0.49273681640625,-0.3409881591796875,139550.2709852917,-0.251567256574956,-0.06844510422779948,0.02390027288680711
2017-11-24 14:35:45.405 -0800,22,C4D50155-580C-4885-BACB-A13DEF47355A,1511562944.992983,49.27919904834273,-122.9165731234083,345.3726,0.0605009,219.344025647251,3,16,-9999,139550.3271072917,0.9634552001953125,0.4384307861328125,-0.3171234130859375,139550.3010452917,-0.05460146024934958,-0.01155998334370695,0.006407565582730647
2017-11-24 14:35:45.430 -0800,23,C4D50155-580C-4885-BACB-A13DEF47355A,1511562944.992983,49.27919904834273,-122.9165731234083,345.3726,0.0605009,219.344025647251,3,16,-9999,139550.3571672917,1.029342651367188,0.4012298583984375,-0.3761749267578125,139550.3311052917,0.1160800013816108,0.2224439921582855,0.07287420743671026
2017-11-24 14:35:45.460 -0800,24,C4D50155-580C-4885-BACB-A13DEF47355A,1511562944.992983,49.27919904834273,-122.9165731234083,345.3726,0.0605009,219.344025647251,3,16,-9999,139550.3872262917,1.036514282226562,0.39111328125,-0.393218994140625,139550.3611642917,-0.004629106606775732,0.1641127748022799,0.2300300065233762
2017-11-24 14:35:45.490 -0800,25,C4D50155-580C-4885-BACB-A13DEF47355A,1511562944.992983,49.27919904834273,-122.9165731234083,345.3726,0.0605009,219.344025647251,3,16,-9999,139550.4172862917,1.047454833984375,0.3701171875,-0.424774169921875,139550.3912242917,-0.2073955341026837,0.09226974333964834,0.3228891074122591
2017-11-24 14:35:45.520 -0800,26,C4D50155-580C-4885-BACB-A13DEF47355A,1511562944.992983,49.27919904834273,-122.9165731234083,345.3726,0.0605009,219.344025647251,3,16,-9999,139550.4473462917,1.03271484375,0.3554534912109375,-0.42919921875,139550.4212842917,-0.3819268614054626,-0.03589195464321591,0.4299599011422408
2017-11-24 14:35:45.552 -0800,27,C4D50155-580C-4885-BACB-A13DEF47355A,1511562944.992983,49.27919904834273,-122.9165731234083,345.3726,0.0605009,219.344025647251,3,16,-9999,139550.4774062917,1.024383544921875,0.3438568115234375,-0.4456939697265625,139550.4513442917,-0.403683289614756,-0.09331876249303056,0.5464060871737375
2017-11-24 14:35:45.580 -0800,28,C4D50155-580C-4885-BACB-A13DEF47355A,1511562944.992983,49.27919904834273,-122.9165731234083,345.3726,0.0605009,219.344025647251,3,16,-9999,139550.5074662917,1.016815185546875,0.331451416015625,-0.44525146484375,139550.4814042917,-0.3089884717864815,-0.2274382181505111,0.6892804185987444
2017-11-24 14:35:45.610 -0800,29,C4D50155-580C-4885-BACB-A13DEF47355A,1511562944.992983,49.27919904834273,-122.9165731234083,345.3726,0.0605009,219.344025647251,3,16,-9999,139550.5375262917,0.9886932373046875,0.3287811279296875,-0.4014892578125,139550.5114642917,-0.2088895674742182,-0.4104357345586519,0.8704233096237541
2017-11-24 14:35:45.655 -0800,30,C4D50155-580C-4885-BACB-A13DEF47355A,1511562944.992983,49.27919904834273,-122.9165731234083,345.3726,0.0605009,219.344025647251,3,16,-9999,139550.5675852917,0.9664154052734375,0.3264923095703125,-0.414886474609375,139550.5415542917,-0.2005890269886592,-0.4276986110606545,1.043888307226065
2017-11-24 14:35:45.670 -0800,31,C4D50155-580C-4885-BACB-A13DEF47355A,1511562944.992983,49.27919904834273,-122.9165731234083,345.3726,0.0605009,219.344025647251,3,16,-9999,139550.5976452917,0.9022369384765625,0.3353118896484375,-0.402923583984375,139550.5716142917,-0.4234114543378449,-0.619494945394308,1.203088881397694
2017-11-24 14:35:45.701 -0800,32,C4D50155-580C-4885-BACB-A13DEF47355A,1511562944.992983,49.27919904834273,-122.9165731234083,345.3726,0.0605009,219.344025647251,3,16,-9999,139550.6277052917,0.92657470703125,0.365875244140625,-0.4349212646484375,139550.6016742917,-0.6703541316798783,-0.7717920733882335,1.240698042311793
2017-11-24 14:35:45.736 -0800,33,C4D50155-580C-4885-BACB-A13DEF47355A,1511562944.992983,49.27919904834273,-122.9165731234083,345.3726,0.0605009,219.344025647251,3,16,-9999,139550.6577652917,0.8509979248046875,0.375823974609375,-0.39300537109375,139550.6317332917,-0.7868775493829873,-0.9890532877491157,1.247591901109572
2017-11-24 14:35:45.761 -0800,34,C4D50155-580C-4885-BACB-A13DEF47355A,1511562944.992983,49.27919904834273,-122.9165731234083,345.3726,0.0605009,219.344025647251,3,16,-9999,139550.6878252917,0.8320159912109375,0.4032440185546875,-0.3645477294921875,139550.6617932917,-0.6791084748151868,-0.9733835142111985,1.251748562938968
2017-11-24 14:35:45.791 -0800,35,C4D50155-580C-4885-BACB-A13DEF47355A,1511562944.992983,49.27919904834273,-122.9165731234083,345.3726,0.0605009,219.344025647251,3,16,-9999,139550.7178842917,0.7861785888671875,0.36444091796875,-0.3963165283203125,139550.6918532917,-0.5128920690678533,-0.8037380222442789,1.089321302790599
2017-11-24 14:35:45.821 -0800,36,C4D50155-580C-4885-BACB-A13DEF47355A,1511562944.992983,49.27919904834273,-122.9165731234083,345.3726,0.0605009,219.344025647251,3,16,-9999,139550.7479442917,0.7481689453125,0.3368072509765625,-0.390411376953125,139550.7219132917,-0.3909073069173188,-0.830323826774322,0.9532545437440526
2017-11-24 14:35:45.851 -0800,37,C4D50155-580C-4885-BACB-A13DEF47355A,1511562944.992983,49.27919904834273,-122.9165731234083,345.3726,0.0605009,219.344025647251,3,16,-9999,139550.7780042917,0.754852294921875,0.2761383056640625,-0.3529510498046875,139550.7519732917,-0.2666087904117235,-0.8303006572728383,0.7598648401302046
2017-11-24 14:35:45.885 -0800,38,C4D50155-580C-4885-BACB-A13DEF47355A,1511562944.992983,49.27919904834273,-122.9165731234083,345.3726,0.0605009,219.344025647251,3,16,-9999,139550.8080642917,0.7863922119140625,0.184722900390625,-0.4089813232421875,139550.7820322917,-0.1446988630878203,-0.6065128340284989,0.6414170222234044
2017-11-24 14:35:45.911 -0800,39,C4D50155-580C-4885-BACB-A13DEF47355A,1511562944.992983,49.27919904834273,-122.9165731234083,345.3726,0.0605009,219.344025647251,3,16,-9999,139550.8381242917,0.8360748291015625,0.1387939453125,-0.464019775390625,139550.8120922917,-0.206665561647893,-0.4707147879359414,0.7384429049538253
2017-11-24 14:35:45.941 -0800,40,C4D50155-580C-4885-BACB-A13DEF47355A,1511562944.992983,49.27919904834273,-122.9165731234083,345.3726,0.0605009,219.344025647251,3,16,-9999,139550.8681842917,0.851104736328125,0.0949554443359375,-0.4931182861328125,139550.8421522917,-0.331525738827386,-0.5342447620558907,0.8327619507522895
2017-11-24 14:35:45.971 -0800,41,C4D50155-580C-4885-BACB-A13DEF47355A,1511562944.992983,49.27919904834273,-122.9165731234083,345.3726,0.0605009,219.344025647251,3,16,-9999,139550.8982432917,0.841400146484375,0.087799072265625,-0.5024566650390625,139550.8722122917,-0.5162457878285901,-0.5912872757604068,0.9344984328188426
2017-11-24 14:35:46.001 -0800,42,C4D50155-580C-4885-BACB-A13DEF47355A,1511562944.992983,49.27919904834273,-122.9165731234083,345.3726,0.0605009,219.344025647251,3,16,-9999,139550.9283032917,0.83251953125,0.107391357421875,-0.51239013671875,139550.9022722917,-0.6590554044391082,-0.705669511947092,1.004965675262339
2017-11-24 14:35:46.031 -0800,43,C4D50155-580C-4885-BACB-A13DEF47355A,1511562944.992983,49.27919904834273,-122.9165731234083,345.3726,0.0605009,219.344025647251,3,16,-9999,139550.9583632917,0.820648193359375,0.1095733642578125,-0.5100555419921875,139550.9323312917,-0.7222269170763327,-0.8837223371592828,0.9672089752238497
2017-11-24 14:35:46.061 -0800,44,C4D50155-580C-4885-BACB-A13DEF47355A,1511562944.992983,49.27919904834273,-122.9165731234083,345.3726,0.0605009,219.344025647251,3,16,-9999,139550.9884232917,0.7716217041015625,0.112640380859375,-0.4931488037109375,139550.9623912917,-0.6493180885454515,-0.9750645014912566,0.9236684219299263
2017-11-24 14:35:46.091 -0800,45,C4D50155-580C-4885-BACB-A13DEF47355A,1511562944.992983,49.27919904834273,-122.9165731234083,345.3726,0.0605009,219.344025647251,3,16,-9999,139551.0184832917,0.7425384521484375,0.0985107421875,-0.434356689453125,139550.9924512917,-0.3617552803608755,-1.00420853856443,0.8321329121028128
2017-11-24 14:35:46.132 -0800,46,C4D50155-580C-4885-BACB-A13DEF47355A,1511562944.992983,49.27919904834273,-122.9165731234083,345.3726,0.0605009,219.344025647251,3,16,-9999,139551.0485422917,0.74871826171875,0.07135009765625,-0.446441650390625,139551.0225112917,0.04032265574878074,-0.8001683211191367,0.731577808295819
2017-11-24 14:35:46.151 -0800,47,C4D50155-580C-4885-BACB-A13DEF47355A,1511562944.992983,49.27919904834273,-122.9165731234083,345.3726,0.0605009,219.344025647251,3,16,-9999,139551.0786022917,0.7280120849609375,0.033355712890625,-0.49322509765625,139551.0525712917,0.1329503279389357,-0.6412191493544115,0.7304827164555784
2017-11-24 14:35:46.181 -0800,48,C4D50155-580C-4885-BACB-A13DEF47355A,1511562945.992966,49.27920776049192,-122.9165639838378,345.3674,0.08844298,218.73301058448,3,16,-9999,139551.1086932917,0.7117767333984375,0.0462188720703125,-0.5270843505859375,139551.0826312917,0.03564774277125565,-0.725865327757599,0.7178449518187163
2017-11-24 14:35:46.211 -0800,49,C4D50155-580C-4885-BACB-A13DEF47355A,1511562945.992966,49.27920776049192,-122.9165639838378,345.3674,0.08844298,218.73301058448,3,16,-9999,139551.1387522917,0.6759185791015625,0.0165557861328125,-0.4716949462890625,139551.1126902917,0.07104248523895376,-0.8477233234402457,0.5639952009092748
2017-11-24 14:35:46.241 -0800,50,C4D50155-580C-4885-BACB-A13DEF47355A,1511562945.992966,49.27920776049192,-122.9165639838378,345.3674,0.08844298,218.73301058448,3,16,-9999,139551.1688122917,0.6717376708984375,-0.0419921875,-0.5322723388671875,139551.1427502917,0.2442219919724084,-0.4703480706538375,0.5404549874018464
2017-11-24 14:35:46.287 -0800,51,C4D50155-580C-4885-BACB-A13DEF47355A,1511562945.992966,49.27920776049192,-122.9165639838378,345.3674,0.08844298,218.73301058448,3,16,-9999,139551.1988711667,0.6711273193359375,-0.0327301025390625,-0.60675048828125,139551.1728102917,0.1639180977265951,-0.2995265267495389,0.6574332730191409
2017-11-24 14:35:46.301 -0800,52,C4D50155-580C-4885-BACB-A13DEF47355A,1511562945.992966,49.27920776049192,-122.9165639838378,345.3674,0.08844298,218.73301058448,3,16,-9999,139551.2289311667,0.700714111328125,0.0013275146484375,-0.5883026123046875,139551.2028691667,-0.027862257640518,-0.5514940564363339,0.5735170670707441
2017-11-24 14:35:46.332 -0800,53,C4D50155-580C-4885-BACB-A13DEF47355A,1511562945.992966,49.27920776049192,-122.9165639838378,345.3674,0.08844298,218.73301058448,3,16,-9999,139551.2589911667,0.716094970703125,-0.0398101806640625,-0.6345672607421875,139551.2329291667,0.02823936125087322,-0.4028329422786937,0.4164486196678328
2017-11-24 14:35:46.372 -0800,54,C4D50155-580C-4885-BACB-A13DEF47355A,1511562945.992966,49.27920776049192,-122.9165639838378,345.3674,0.08844298,218.73301058448,3,16,-9999,139551.2890501667,0.7608489990234375,-0.0402069091796875,-0.72357177734375,139551.2629881667,-0.04264253537434876,-0.1099960098713248,0.5211332210611035
2017-11-24 14:35:46.392 -0800,55,C4D50155-580C-4885-BACB-A13DEF47355A,1511562945.992966,49.27920776049192,-122.9165639838378,345.3674,0.08844298,218.73301058448,3,16,-9999,139551.3191101667,0.7655029296875,0.00115966796875,-0.6785888671875,139551.2930481667,-0.1888287739309783,-0.2774987224251665,0.6413951843024657
2017-11-24 14:35:46.422 -0800,56,C4D50155-580C-4885-BACB-A13DEF47355A,1511562945.992966,49.27920776049192,-122.9165639838378,345.3674,0.08844298,218.73301058448,3,16,-9999,139551.3491701667,0.7746734619140625,-0.0229034423828125,-0.639617919921875,139551.3231081667,-0.08188421403666633,-0.1185455559188061,0.6171673426015789
2017-11-24 14:35:46.452 -0800,57,C4D50155-580C-4885-BACB-A13DEF47355A,1511562945.992966,49.27920776049192,-122.9165639838378,345.3674,0.08844298,218.73301058448,3,16,-9999,139551.3792301667,0.8147735595703125,-0.0811309814453125,-0.7436065673828125,139551.3531681667,-0.01993242917869806,0.4116916813287332,0.7046729570671845
2017-11-24 14:35:46.482 -0800,58,C4D50155-580C-4885-BACB-A13DEF47355A,1511562945.992966,49.27920776049192,-122.9165639838378,345.3674,0.08844298,218.73301058448,3,16,-9999,139551.4092901667,0.802978515625,-0.09161376953125,-0.8347930908203125,139551.3832281667,-0.4586083239365502,0.4633037432544689,0.8923768117537133
2017-11-24 14:35:46.525 -0800,59,C4D50155-580C-4885-BACB-A13DEF47355A,1511562945.992966,49.27920776049192,-122.9165639838378,345.3674,0.08844298,218.73301058448,3,16,-9999,139551.4393501667,0.7397613525390625,-0.086700439453125,-0.794281005859375,139551.4132871667,-0.9143755876222038,0.05882257057712517,1.010599326232293
2017-11-24 14:35:46.542 -0800,60,C4D50155-580C-4885-BACB-A13DEF47355A,1511562945.992966,49.27920776049192,-122.9165639838378,345.3674,0.08844298,218.73301058448,3,16,-9999,139551.4694091667,0.7588958740234375,-0.1856842041015625,-0.7779541015625,139551.4433471667,-0.8648466503011282,0.08119152583713672,0.8828831750997989
2017-11-24 14:35:46.574 -0800,61,C4D50155-580C-4885-BACB-A13DEF47355A,1511562945.992966,49.27920776049192,-122.9165639838378,345.3674,0.08844298,218.73301058448,3,16,-9999,139551.4994691667,0.7806396484375,-0.27105712890625,-0.81976318359375,139551.4734071667,-0.4516305755644336,0.3200722819272823,0.8783344959579434
2017-11-24 14:35:46.610 -0800,62,C4D50155-580C-4885-BACB-A13DEF47355A,1511562945.992966,49.27920776049192,-122.9165639838378,345.3674,0.08844298,218.73301058448,3,16,-9999,139551.5295291667,0.7452239990234375,-0.26629638671875,-0.8581085205078125,139551.5034671667,-0.5845345645004019,0.2829427563255065,1.065094526354148
2017-11-24 14:35:46.632 -0800,63,C4D50155-580C-4885-BACB-A13DEF47355A,1511562945.992966,49.27920776049192,-122.9165639838378,345.3674,0.08844298,218.73301058448,3,16,-9999,139551.5595891667,0.6624603271484375,-0.234588623046875,-0.797454833984375,139551.5335271667,-1.018381082937504,-0.1691805040405917,1.084700185667093
2017-11-24 14:35:46.662 -0800,64,C4D50155-580C-4885-BACB-A13DEF47355A,1511562945.992966,49.27920776049192,-122.9165639838378,345.3674,0.08844298,218.73301058448,3,16,-9999,139551.5896491667,0.5896453857421875,-0.220947265625,-0.6747589111328125,139551.5635871667,-0.9296972860056477,-0.4312419468910049,0.9506403848180308
2017-11-24 14:35:46.692 -0800,65,C4D50155-580C-4885-BACB-A13DEF47355A,1511562945.992966,49.27920776049192,-122.9165639838378,345.3674,0.08844298,218.73301058448,3,16,-9999,139551.6197081667,0.5154266357421875,-0.2439117431640625,-0.5830841064453125,139551.5936461667,-0.2530825952352111,-0.2607479718007861,0.8795393100350953
2017-11-24 14:35:46.723 -0800,66,C4D50155-580C-4885-BACB-A13DEF47355A,1511562945.992966,49.27920776049192,-122.9165639838378,345.3674,0.08844298,218.73301058448,3,16,-9999,139551.6497681667,0.47149658203125,-0.22235107421875,-0.554931640625,139551.6237061667,0.3183606682946883,-0.0179507710115701,0.8598447011417414
2017-11-24 14:35:46.772 -0800,67,C4D50155-580C-4885-BACB-A13DEF47355A,1511562945.992966,49.27920776049192,-122.9165639838378,345.3674,0.08844298,218.73301058448,3,16,-9999,139551.6798281667,0.4354248046875,-0.2182769775390625,-0.5583343505859375,139551.6537661667,0.3795473269714769,0.07977179466001548,0.7016838250596795
2017-11-24 14:35:46.782 -0800,68,C4D50155-580C-4885-BACB-A13DEF47355A,1511562945.992966,49.27920776049192,-122.9165639838378,345.3674,0.08844298,218.73301058448,3,16,-9999,139551.7098881667,0.4137420654296875,-0.2209320068359375,-0.5403900146484375,139551.6838261667,0.1683999315250895,-0.01715182268454633,0.5582267939881632
2017-11-24 14:35:46.813 -0800,69,C4D50155-580C-4885-BACB-A13DEF47355A,1511562945.992966,49.27920776049192,-122.9165639838378,345.3674,0.08844298,218.73301058448,3,16,-9999,139551.7399481667,0.4124908447265625,-0.23309326171875,-0.5579071044921875,139551.7138861667,-0.04703968065017859,-0.02188399362550813,0.4968036466065756
2017-11-24 14:35:46.855 -0800,70,C4D50155-580C-4885-BACB-A13DEF47355A,1511562945.992966,49.27920776049192,-122.9165639838378,345.3674,0.08844298,218.73301058448,3,16,-9999,139551.7700071667,0.4306182861328125,-0.2586517333984375,-0.60247802734375,139551.7439451667,-0.06352597937831411,0.07276102309038189,0.3818674729131539
2017-11-24 14:35:46.873 -0800,71,C4D50155-580C-4885-BACB-A13DEF47355A,1511562945.992966,49.27920776049192,-122.9165639838378,345.3674,0.08844298,218.73301058448,3,16,-9999,139551.8000671667,0.46490478515625,-0.319580078125,-0.6763916015625,139551.7740051667,-0.06973780262092394,0.1281105652899347,0.2765980413445017
2017-11-24 14:35:46.903 -0800,72,C4D50155-580C-4885-BACB-A13DEF47355A,1511562945.992966,49.27920776049192,-122.9165639838378,345.3674,0.08844298,218.73301058448,3,16,-9999,139551.8301271667,0.514129638671875,-0.394317626953125,-0.7495574951171875,139551.8040651667,-0.3148335777469874,0.01536936896695629,0.1186496855174282
2017-11-24 14:35:46.933 -0800,73,C4D50155-580C-4885-BACB-A13DEF47355A,1511562945.992966,49.27920776049192,-122.9165639838378,345.3674,0.08844298,218.73301058448,3,16,-9999,139551.8601871667,0.4828643798828125,-0.4046173095703125,-0.76763916015625,139551.8341251667,-0.5028053464391782,-0.207204052820307,0.2326889065557113
2017-11-24 14:35:46.963 -0800,74,C4D50155-580C-4885-BACB-A13DEF47355A,1511562945.992966,49.27920776049192,-122.9165639838378,345.3674,0.08844298,218.73301058448,3,16,-9999,139551.8902471667,0.4493408203125,-0.4008941650390625,-0.7849578857421875,139551.8641851667,-0.4733393331902145,-0.2169328465984755,0.3065926920698462
2017-11-24 14:35:47.002 -0800,75,C4D50155-580C-4885-BACB-A13DEF47355A,1511562945.992966,49.27920776049192,-122.9165639838378,345.3674,0.08844298,218.73301058448,3,16,-9999,139551.9203071667,0.4373931884765625,-0.417816162109375,-0.84686279296875,139551.8942451667,-0.1337463467887604,-0.2631815684049005,0.2234221712266716
2017-11-24 14:35:47.023 -0800,76,C4D50155-580C-4885-BACB-A13DEF47355A,1511562945.992966,49.27920776049192,-122.9165639838378,345.3674,0.08844298,218.73301058448,3,16,-9999,139551.9503661667,0.4082794189453125,-0.4461669921875,-0.859222412109375,139551.9243041667,0.07381456961761723,-0.4608621571670842,0.1395730769377448
2017-11-24 14:35:47.053 -0800,77,C4D50155-580C-4885-BACB-A13DEF47355A,1511562945.992966,49.27920776049192,-122.9165639838378,345.3674,0.08844298,218.73301058448,3,16,-9999,139551.9804261667,0.36358642578125,-0.5262298583984375,-0.8709869384765625,139551.9543641667,-0.14596599513448,-0.541951417618362,0.06086920987485107
2017-11-24 14:35:47.092 -0800,78,C4D50155-580C-4885-BACB-A13DEF47355A,1511562945.992966,49.27920776049192,-122.9165639838378,345.3674,0.08844298,218.73301058448,3,16,-9999,139552.0104861667,0.4505157470703125,-0.5447540283203125,-1.049468994140625,139551.9844241667,-0.1249443330699395,-0.2193544589776845,0.0003520698961084753
2017-11-24 14:35:47.113 -0800,79,C4D50155-580C-4885-BACB-A13DEF47355A,1511562945.992966,49.27920776049192,-122.9165639838378,345.3674,0.08844298,218.73301058448,3,16,-9999,139552.0405461667,0.4634857177734375,-0.5294342041015625,-1.143798828125,139552.0144841667,-0.008871522223271958,-0.4339503817196155,0.00836072792619476
2017-11-24 14:35:47.143 -0800,80,C4D50155-580C-4885-BACB-A13DEF47355A,1511562945.992966,49.27920776049192,-122.9165639838378,345.3674,0.08844298,218.73301058448,3,16,-9999,139552.0706061667,0.4339447021484375,-0.4437408447265625,-1.11749267578125,139552.0445441667,-0.02981328945511005,-0.8423615812175892,-0.01428200029387694
2017-11-24 14:35:47.173 -0800,81,C4D50155-580C-4885-BACB-A13DEF47355A,1511562946.992942,49.27921049636624,-122.916573876001,345.4095,0.08289827,216.9764498544928,3,16,-9999,139552.1006651667,0.43023681640625,-0.3786468505859375,-1.10888671875,139552.0746031667,0.1125675582199053,-0.9337628677257627,-0.1192861810179572
2017-11-24 14:35:47.203 -0800,82,C4D50155-580C-4885-BACB-A13DEF47355A,1511562946.992942,49.27921049636624,-122.916573876001,345.4095,0.08289827,216.9764498544928,3,16,-9999,139552.1307251667,0.4494171142578125,-0.28173828125,-1.067672729492188,139552.1046631667,0.3709929872340333,-1.186648389040308,-0.2555042076144201
2017-11-24 14:35:47.250 -0800,83,C4D50155-580C-4885-BACB-A13DEF47355A,1511562946.992942,49.27921049636624,-122.916573876001,345.4095,0.08289827,216.9764498544928,3,16,-9999,139552.1607851667,0.4931793212890625,-0.310089111328125,-0.9646453857421875,139552.1347231667,0.6366542249299066,-1.354381198712332,-0.5774984929004126
2017-11-24 14:35:47.263 -0800,84,C4D50155-580C-4885-BACB-A13DEF47355A,1511562946.992942,49.27921049636624,-122.916573876001,345.4095,0.08289827,216.9764498544928,3,16,-9999,139552.1908191667,0.544464111328125,-0.315765380859375,-0.950103759765625,139552.1647831667,1.083197097547853,-0.9838729067966936,-0.6693855399914165
2017-11-24 14:35:47.293 -0800,85,C4D50155-580C-4885-BACB-A13DEF47355A,1511562946.992942,49.27921049636624,-122.916573876001,345.4095,0.08289827,216.9764498544928,3,16,-9999,139552.2208791667,0.556365966796875,-0.2998504638671875,-0.98260498046875,139552.1948171667,1.012852094198391,-0.7058420847857292,-0.5966322400681958
2017-11-24 14:35:47.326 -0800,86,C4D50155-580C-4885-BACB-A13DEF47355A,1511562946.992942,49.27921049636624,-122.916573876001,345.4095,0.08289827,216.9764498544928,3,16,-9999,139552.2509381667,0.5133514404296875,-0.251312255859375,-0.9418792724609375,139552.2249071667,0.6722375192027824,-0.6861871569926175,-0.4678135402444091
2017-11-24 14:35:47.354 -0800,87,C4D50155-580C-4885-BACB-A13DEF47355A,1511562946.992942,49.27921049636624,-122.916573876001,345.4095,0.08289827,216.9764498544928,3,16,-9999,139552.2809981667,0.4830169677734375,-0.252899169921875,-0.889984130859375,139552.2549671667,0.6409238047895217,-0.4591004761059968,-0.4412564978541389
2017-11-24 14:35:47.384 -0800,88,C4D50155-580C-4885-BACB-A13DEF47355A,1511562946.992942,49.27921049636624,-122.916573876001,345.4095,0.08289827,216.9764498544928,3,16,-9999,139552.3110581667,0.4490814208984375,-0.2357940673828125,-0.8401336669921875,139552.2850271667,0.8690152963554292,-0.04290831885113867,-0.2584294237557632
2017-11-24 14:35:47.414 -0800,89,C4D50155-580C-4885-BACB-A13DEF47355A,1511562946.992942,49.27921049636624,-122.916573876001,345.4095,0.08289827,216.9764498544928,3,16,-9999,139552.3411181667,0.38629150390625,-0.1754913330078125,-0.7844696044921875,139552.3150861667,0.8427373532473993,0.01835264202006305,-0.04074636467821235
2017-11-24 14:35:47.444 -0800,90,C4D50155-580C-4885-BACB-A13DEF47355A,1511562946.992942,49.27921049636624,-122.916573876001,345.4095,0.08289827,216.9764498544928,3,16,-9999,139552.3711781667,0.2978668212890625,-0.1186370849609375,-0.6641693115234375,139552.3451461667,0.6757073517870467,-0.4491192146564889,-0.08431141905416456
2017-11-24 14:35:47.485 -0800,91,C4D50155-580C-4885-BACB-A13DEF47355A,1511562946.992942,49.27921049636624,-122.916573876001,345.4095,0.08289827,216.9764498544928,3,16,-9999,139552.4012381667,0.23883056640625,-0.123992919921875,-0.51025390625,139552.3752061667,0.6858822250478034,-0.7480049848477547,-0.3071194653334638
2017-11-24 14:35:47.504 -0800,92,C4D50155-580C-4885-BACB-A13DEF47355A,1511562946.992942,49.27921049636624,-122.916573876001,345.4095,0.08289827,216.9764498544928,3,16,-9999,139552.4312971667,0.25250244140625,-0.1268157958984375,-0.535247802734375,139552.4052661667,0.7679536593091023,-0.3386438357889498,-0.3003608951190608
2017-11-24 14:35:47.534 -0800,93,C4D50155-580C-4885-BACB-A13DEF47355A,1511562946.992942,49.27921049636624,-122.916573876001,345.4095,0.08289827,216.9764498544928,3,16,-9999,139552.4613571667,0.349700927734375,-0.0972900390625,-0.65045166015625,139552.4353261667,0.6932578496867778,0.06364741952402173,-0.2997073553875553
2017-11-24 14:35:47.570 -0800,94,C4D50155-580C-4885-BACB-A13DEF47355A,1511562946.992942,49.27921049636624,-122.916573876001,345.4095,0.08289827,216.9764498544928,3,16,-9999,139552.4914171667,0.4500732421875,-0.1304931640625,-0.6065216064453125,139552.4653861667,0.6494816066363823,0.02060088261230795,-0.5314034354888851
2017-11-24 14:35:47.594 -0800,95,C4D50155-580C-4885-BACB-A13DEF47355A,1511562946.992942,49.27921049636624,-122.916573876001,345.4095,0.08289827,216.9764498544928,3,16,-9999,139552.5214771667,0.6471710205078125,-0.184051513671875,-0.672393798828125,139552.4954451667,0.559800189560182,0.584469849685913,-0.7050537891030658
2017-11-24 14:35:47.624 -0800,96,C4D50155-580C-4885-BACB-A13DEF47355A,1511562946.992942,49.27921049636624,-122.916573876001,345.4095,0.08289827,216.9764498544928,3,16,-9999,139552.5515371667,0.8819122314453125,-0.2154388427734375,-0.898956298828125,139552.5255051667,0.2141101621591005,1.439336570118078,-0.6913006926016786
2017-11-24 14:35:47.656 -0800,97,C4D50155-580C-4885-BACB-A13DEF47355A,1511562946.992942,49.27921049636624,-122.916573876001,345.4095,0.08289827,216.9764498544928,3,16,-9999,139552.5815961667,1.028121948242188,-0.1894378662109375,-1.012039184570312,139552.5555651667,-0.4946123976616584,1.508594204794461,-0.5489589933946875
2017-11-24 14:35:47.684 -0800,98,C4D50155-580C-4885-BACB-A13DEF47355A,1511562946.992942,49.27921049636624,-122.916573876001,345.4095,0.08289827,216.9764498544928,3,16,-9999,139552.6116561667,0.936798095703125,-0.1996307373046875,-0.8235931396484375,139552.5856251667,-0.867598760971616,0.8270002017339031,-0.4288115460801986
2017-11-24 14:35:47.724 -0800,99,C4D50155-580C-4885-BACB-A13DEF47355A,1511562946.992942,49.27921049636624,-122.916573876001,345.4095,0.08289827,216.9764498544928,3,16,-9999,139552.6417161667,0.7589111328125,-0.21844482421875,-0.6643829345703125,139552.6156851667,-0.5265498244022156,0.741025372262875,-0.2110757564130642
2017-11-24 14:35:47.744 -0800,100,C4D50155-580C-4885-BACB-A13DEF47355A,1511562946.992942,49.27921049636624,-122.916573876001,345.4095,0.08289827,216.9764498544928,3,16,-9999,139552.6717761667,0.7092742919921875,-0.1735992431640625,-0.5831451416015625,139552.6457441667,-0.148151917757217,0.8608891929212704,-0.04745593272855798
2017-11-24 14:35:47.775 -0800,101,C4D50155-580C-4885-BACB-A13DEF47355A,1511562946.992942,49.27921049636624,-122.916573876001,345.4095,0.08289827,216.9764498544928,3,16,-9999,139552.7018361667,0.76617431640625,-0.2898712158203125,-0.6826019287109375,139552.6758041667,-0.4132227326394198,1.281852669585114,-0.1842790295246869
2017-11-24 14:35:47.812 -0800,102,C4D50155-580C-4885-BACB-A13DEF47355A,1511562946.992942,49.27921049636624,-122.916573876001,345.4095,0.08289827,216.9764498544928,3,16,-9999,139552.7318961667,0.88714599609375,-0.31585693359375,-0.8636932373046875,139552.7058641667,-0.870990562935941,1.381669278821829,-0.2658814811180229
2017-11-24 14:35:47.835 -0800,103,C4D50155-580C-4885-BACB-A13DEF47355A,1511562946.992942,49.27921049636624,-122.916573876001,345.4095,0.08289827,216.9764498544928,3,16,-9999,139552.7619551667,0.8737335205078125,-0.356048583984375,-0.8370361328125,139552.7359241667,-1.751247861200922,0.6386760968294948,-0.1946078334964502
2017-11-24 14:35:47.865 -0800,104,C4D50155-580C-4885-BACB-A13DEF47355A,1511562946.992942,49.27921049636624,-122.916573876001,345.4095,0.08289827,216.9764498544928,3,16,-9999,139552.7920461667,0.8731231689453125,-0.4437408447265625,-0.86456298828125,139552.7659841667,-1.853185944561994,0.6240082044936653,-0.1688758384118866
2017-11-24 14:35:47.895 -0800,105,C4D50155-580C-4885-BACB-A13DEF47355A,1511562946.992942,49.27921049636624,-122.916573876001,345.4095,0.08289827,216.9764498544928,3,16,-9999,139552.8221051667,0.7724761962890625,-0.4169921875,-0.8800048828125,139552.7960431667,-1.142169870410459,0.7980902565205479,0.1350254630603255
2017-11-24 14:35:47.925 -0800,106,C4D50155-580C-4885-BACB-A13DEF47355A,1511562946.992942,49.27921049636624,-122.916573876001,345.4095,0.08289827,216.9764498544928,3,16,-9999,139552.8521651667,0.6091461181640625,-0.3595428466796875,-0.716156005859375,139552.8261031667,-0.8475193253007456,0.404526712731984,0.3500980916373806
2017-11-24 14:35:47.963 -0800,107,C4D50155-580C-4885-BACB-A13DEF47355A,1511562946.992942,49.27921049636624,-122.916573876001,345.4095,0.08289827,216.9764498544928,3,16,-9999,139552.8822251667,0.4676513671875,-0.307525634765625,-0.5488433837890625,139552.8561631667,-0.7289772314913566,0.1367527893433509,0.4367243303110421
2017-11-24 14:35:47.985 -0800,108,C4D50155-580C-4885-BACB-A13DEF47355A,1511562946.992942,49.27921049636624,-122.916573876001,345.4095,0.08289827,216.9764498544928,3,16,-9999,139552.9122851667,0.4131317138671875,-0.3136444091796875,-0.540069580078125,139552.8862231667,-0.6520723297448114,0.2118890858099744,0.4532162216774667
2017-11-24 14:35:48.015 -0800,109,C4D50155-580C-4885-BACB-A13DEF47355A,1511562946.992942,49.27921049636624,-122.916573876001,345.4095,0.08289827,216.9764498544928,3,16,-9999,139552.9423451667,0.3723907470703125,-0.271728515625,-0.5096588134765625,139552.9162831667,-0.6808757485145635,-0.01085131617763686,0.4468288961190207
2017-11-24 14:35:48.046 -0800,110,C4D50155-580C-4885-BACB-A13DEF47355A,1511562946.992942,49.27921049636624,-122.916573876001,345.4095,0.08289827,216.9764498544928,3,16,-9999,139552.9724051667,0.35430908203125,-0.2868194580078125,-0.43310546875,139552.9463431667,-0.5167877411104213,-0.2997078880197733,0.3789726168082377
2017-11-24 14:35:48.075 -0800,111,C4D50155-580C-4885-BACB-A13DEF47355A,1511562946.992942,49.27921049636624,-122.916573876001,345.4095,0.08289827,216.9764498544928,3,16,-9999,139553.0024641667,0.3793792724609375,-0.324432373046875,-0.542572021484375,139552.9764021667,-0.2369760632785209,-0.07970947669050762,0.4261521134156455
2017-11-24 14:35:48.106 -0800,112,C4D50155-580C-4885-BACB-A13DEF47355A,1511562946.992942,49.27921049636624,-122.916573876001,345.4095,0.08289827,216.9764498544928,3,16,-9999,139553.0325241667,0.4572296142578125,-0.317169189453125,-0.6658782958984375,139553.0064621667,-0.2120731102412989,-0.1105776442533981,0.4541893407397817
2017-11-24 14:35:48.135 -0800,113,C4D50155-580C-4885-BACB-A13DEF47355A,1511562946.992942,49.27921049636624,-122.916573876001,345.4095,0.08289827,216.9764498544928,3,16,-9999,139553.0625841667,0.4611968994140625,-0.385711669921875,-0.6852874755859375,139553.0365221667,-0.09724745773311545,-0.5034461029974513,0.4776975963141292
2017-11-24 14:35:48.165 -0800,114,C4D50155-580C-4885-BACB-A13DEF47355A,1511562947.992922,49.27921032921554,-122.9165750176945,345.3676,0.01323581,180.5800519940307,3,16,-9999,139553.0926441667,0.525299072265625,-0.4287109375,-0.8118896484375,139553.0665821667,0.007920507398004662,-0.4909896996308236,0.5051957998336333
2017-11-24 14:35:48.205 -0800,115,C4D50155-580C-4885-BACB-A13DEF47355A,1511562947.992922,49.27921032921554,-122.9165750176945,345.3676,0.01323581,180.5800519940307,3,16,-9999,139553.1227041667,0.515777587890625,-0.4386749267578125,-0.8517303466796875,139553.0966421667,0.1239389897584346,-0.6185378052985336,0.4846985141877295
2017-11-24 14:35:48.225 -0800,116,C4D50155-580C-4885-BACB-A13DEF47355A,1511562947.992922,49.27921032921554,-122.9165750176945,345.3676,0.01323581,180.5800519940307,3,16,-9999,139553.1527631667,0.51837158203125,-0.436767578125,-0.9239044189453125,139553.1267011667,0.02964604293865307,-0.8092627499256484,0.4527171452891859
2017-11-24 14:35:48.255 -0800,117,C4D50155-580C-4885-BACB-A13DEF47355A,1511562947.992922,49.27921032921554,-122.9165750176945,345.3676,0.01323581,180.5800519940307,3,16,-9999,139553.182804875,0.568115234375,-0.3999176025390625,-1.057891845703125,139553.1567611667,-0.4296720134284032,-0.9330046657634171,0.1684784947772468
2017-11-24 14:35:48.290 -0800,118,C4D50155-580C-4885-BACB-A13DEF47355A,1511562947.992922,49.27921032921554,-122.9165750176945,345.3676,0.01323581,180.5800519940307,3,16,-9999,139553.212864875,0.52435302734375,-0.3424224853515625,-1.055984497070312,139553.186802875,-0.4506220364596206,-1.288131604487194,-0.00505521238118841
2017-11-24 14:35:48.316 -0800,119,C4D50155-580C-4885-BACB-A13DEF47355A,1511562947.992922,49.27921032921554,-122.9165750176945,345.3676,0.01323581,180.5800519940307,3,16,-9999,139553.242924875,0.5164642333984375,-0.245758056640625,-1.10174560546875,139553.216862875,-0.1163420564328746,-1.509189421298094,-0.248273192622637
2017-11-24 14:35:48.346 -0800,120,C4D50155-580C-4885-BACB-A13DEF47355A,1511562947.992922,49.27921032921554,-122.9165750176945,345.3676,0.01323581,180.5800519940307,3,16,-9999,139553.272984875,0.5198516845703125,-0.192779541015625,-1.120407104492188,139553.246922875,0.1689722448433475,-1.749938118576821,-0.7242903342889261
2017-11-24 14:35:48.376 -0800,121,C4D50155-580C-4885-BACB-A13DEF47355A,1511562947.992922,49.27921032921554,-122.9165750176945,345.3676,0.01323581,180.5800519940307,3,16,-9999,139553.303044875,0.621368408203125,-0.1683807373046875,-1.028900146484375,139553.276982875,0.337001730660807,-1.757009610219308,-1.195530297591831
2017-11-24 14:35:48.406 -0800,122,C4D50155-580C-4885-BACB-A13DEF47355A,1511562947.992922,49.27921032921554,-122.9165750176945,345.3676,0.01323581,180.5800519940307,3,16,-9999,139553.333103875,0.719024658203125,-0.1583099365234375,-1.183761596679688,139553.307041875,0.6608242760351388,-0.4596709252114918,-1.473564848028322
2017-11-24 14:35:48.448 -0800,123,C4D50155-580C-4885-BACB-A13DEF47355A,1511562947.992922,49.27921032921554,-122.9165750176945,345.3676,0.01323581,180.5800519940307,3,16,-9999,139553.363163875,0.75543212890625,-0.115386962890625,-1.097824096679688,139553.337101875,1.279396436111734,0.4705406172006502,-1.479031252481818
2017-11-24 14:35:48.466 -0800,124,C4D50155-580C-4885-BACB-A13DEF47355A,1511562947.992922,49.27921032921554,-122.9165750176945,345.3676,0.01323581,180.5800519940307,3,16,-9999,139553.393223875,0.751556396484375,-0.1285247802734375,-0.9145355224609375,139553.367161875,1.99615455188959,0.6751424953198408,-1.021803777570474
2017-11-24 14:35:48.496 -0800,125,C4D50155-580C-4885-BACB-A13DEF47355A,1511562947.992922,49.27921032921554,-122.9165750176945,345.3676,0.01323581,180.5800519940307,3,16,-9999,139553.423283875,0.553741455078125,-0.13934326171875,-0.8301239013671875,139553.397221875,2.365285989521658,0.6282026832105402,-0.7002936549706581
2017-11-24 14:35:48.533 -0800,126,C4D50155-580C-4885-BACB-A13DEF47355A,1511562947.992922,49.27921032921554,-122.9165750176945,345.3676,0.01323581,180.5800519940307,3,16,-9999,139553.453343875,0.4305877685546875,-0.1436004638671875,-0.7050323486328125,139553.427281875,2.384962755235708,0.5356708848196281,-0.5842298988716969
2017-11-24 14:35:48.556 -0800,127,C4D50155-580C-4885-BACB-A13DEF47355A,1511562947.992922,49.27921032921554,-122.9165750176945,345.3676,0.01323581,180.5800519940307,3,16,-9999,139553.483402875,0.3466796875,-0.18243408203125,-0.5301361083984375,139553.457340875,2.200169202988417,-0.1298866274209086,-0.8125895707593753
2017-11-24 14:35:48.586 -0800,128,C4D50155-580C-4885-BACB-A13DEF47355A,1511562947.992922,49.27921032921554,-122.9165750176945,345.3676,0.01323581,180.5800519940307,3,16,-9999,139553.513462875,0.2929534912109375,-0.218994140625,-0.379791259765625,139553.487400875,1.849828497375731,-0.760347937551945,-0.8567453142651071
2017-11-24 14:35:48.616 -0800,129,C4D50155-580C-4885-BACB-A13DEF47355A,1511562947.992922,49.27921032921554,-122.9165750176945,345.3676,0.01323581,180.5800519940307,3,16,-9999,139553.543522875,0.2565765380859375,-0.315155029296875,-0.4628143310546875,139553.517460875,1.136906665148135,-0.7250136488409916,-0.7273252726671804
2017-11-24 14:35:48.646 -0800,130,C4D50155-580C-4885-BACB-A13DEF47355A,1511562947.992922,49.27921032921554,-122.9165750176945,345.3676,0.01323581,180.5800519940307,3,16,-9999,139553.573582875,0.288055419921875,-0.2954559326171875,-0.5,139553.547520875,0.4132690716423872,-0.4777167710739777,-0.4263656989350699
2017-11-24 14:35:48.687 -0800,131,C4D50155-580C-4885-BACB-A13DEF47355A,1511562947.992922,49.27921032921554,-122.9165750176945,345.3676,0.01323581,180.5800519940307,3,16,-9999,139553.603642875,0.52911376953125,-0.360870361328125,-0.678009033203125,139553.577580875,0.2395119252684943,-0.310552812610794,-0.5546688107718173
2017-11-24 14:35:48.706 -0800,132,C4D50155-580C-4885-BACB-A13DEF47355A,1511562947.992922,49.27921032921554,-122.9165750176945,345.3676,0.01323581,180.5800519940307,3,16,-9999,139553.633701875,0.6717987060546875,-0.237060546875,-0.8742523193359375,139553.607639875,0.1532657196823872,-0.3604503314267367,-0.4117449445505348
2017-11-24 14:35:48.736 -0800,133,C4D50155-580C-4885-BACB-A13DEF47355A,1511562947.992922,49.27921032921554,-122.9165750176945,345.3676,0.01323581,180.5800519940307,3,16,-9999,139553.663761875,0.494171142578125,-0.3822021484375,-0.699310302734375,139553.637699875,0.1190177343800772,-0.7911441997654033,-0.4144805436222642
2017-11-24 14:35:48.781 -0800,134,C4D50155-580C-4885-BACB-A13DEF47355A,1511562947.992922,49.27921032921554,-122.9165750176945,345.3676,0.01323581,180.5800519940307,3,16,-9999,139553.693821875,0.6563873291015625,-0.3808135986328125,-0.8621368408203125,139553.667759875,-0.4913460305846762,0.4666872894194146,-0.5631110314273685
2017-11-24 14:35:48.796 -0800,135,C4D50155-580C-4885-BACB-A13DEF47355A,1511562947.992922,49.27921032921554,-122.9165750176945,345.3676,0.01323581,180.5800519940307,3,16,-9999,139553.723881875,0.6882781982421875,-0.375823974609375,-1.041580200195312,139553.697819875,-1.04604520139292,1.384344157820705,-0.3722715708733804
2017-11-24 14:35:48.827 -0800,136,C4D50155-580C-4885-BACB-A13DEF47355A,1511562947.992922,49.27921032921554,-122.9165750176945,345.3676,0.01323581,180.5800519940307,3,16,-9999,139553.753941875,0.7435150146484375,-0.3106689453125,-1.0814208984375,139553.727879875,-1.340655532770173,1.220172260842225,-0.1345673993528319
2017-11-24 14:35:48.857 -0800,137,C4D50155-580C-4885-BACB-A13DEF47355A,1511562947.992922,49.27921032921554,-122.9165750176945,345.3676,0.01323581,180.5800519940307,3,16,-9999,139553.784001875,0.6609649658203125,-0.299835205078125,-0.8721466064453125,139553.757939875,-0.6462229627265613,0.4819000645142742,0.1136503995191315
2017-11-24 14:35:48.887 -0800,138,C4D50155-580C-4885-BACB-A13DEF47355A,1511562947.992922,49.27921032921554,-122.9165750176945,345.3676,0.01323581,180.5800519940307,3,16,-9999,139553.814060875,0.606781005859375,-0.2861480712890625,-0.79437255859375,139553.787998875,0.2619634385222983,0.4447305914961472,0.2047922941371313
2017-11-24 14:35:48.924 -0800,139,C4D50155-580C-4885-BACB-A13DEF47355A,1511562947.992922,49.27921032921554,-122.9165750176945,345.3676,0.01323581,180.5800519940307,3,16,-9999,139553.844120875,0.669342041015625,-0.3857269287109375,-0.8202667236328125,139553.818058875,0.09729912305826298,0.6243893028456557,0.2170715972912686
2017-11-24 14:35:48.947 -0800,140,C4D50155-580C-4885-BACB-A13DEF47355A,1511562947.992922,49.27921032921554,-122.9165750176945,345.3676,0.01323581,180.5800519940307,3,16,-9999,139553.874180875,0.7902374267578125,-0.39434814453125,-0.8968505859375,139553.848118875,-0.5124033790078237,0.7305303870390908,0.3804757049274785
2017-11-24 14:35:48.977 -0800,141,C4D50155-580C-4885-BACB-A13DEF47355A,1511562947.992922,49.27921032921554,-122.9165750176945,345.3676,0.01323581,180.5800519940307,3,16,-9999,139553.904240875,0.9062957763671875,-0.372650146484375,-0.9377593994140625,139553.878208875,-1.193416812950744,0.8421466641176197,0.5361939296577196
2017-11-24 14:35:49.013 -0800,142,C4D50155-580C-4885-BACB-A13DEF47355A,1511562947.992922,49.27921032921554,-122.9165750176945,345.3676,0.01323581,180.5800519940307,3,16,-9999,139553.934300875,0.8136749267578125,-0.323455810546875,-0.816436767578125,139553.908268875,-0.8807877999541245,0.5325717642591028,0.61673484524055
2017-11-24 14:35:49.037 -0800,143,C4D50155-580C-4885-BACB-A13DEF47355A,1511562947.992922,49.27921032921554,-122.9165750176945,345.3676,0.01323581,180.5800519940307,3,16,-9999,139553.964359875,0.60833740234375,-0.28790283203125,-0.6102752685546875,139553.938328875,-0.3556617014706652,0.06654999879609909,0.700825754556456
2017-11-24 14:35:49.067 -0800,144,C4D50155-580C-4885-BACB-A13DEF47355A,1511562947.992922,49.27921032921554,-122.9165750176945,345.3676,0.01323581,180.5800519940307,3,16,-9999,139553.994419875,0.4734344482421875,-0.277923583984375,-0.4636993408203125,139553.968388875,-0.3186911665859671,-0.1688369562599715,0.5446041923801899
2017-11-24 14:35:49.097 -0800,145,C4D50155-580C-4885-BACB-A13DEF47355A,1511562947.992922,49.27921032921554,-122.9165750176945,345.3676,0.01323581,180.5800519940307,3,16,-9999,139554.024479875,0.4361114501953125,-0.285675048828125,-0.4816436767578125,139553.998448875,-0.4684534978543551,0.04807671557865545,0.4583417415114333
2017-11-24 14:35:49.127 -0800,146,C4D50155-580C-4885-BACB-A13DEF47355A,1511562947.992922,49.27921032921554,-122.9165750176945,345.3676,0.01323581,180.5800519940307,3,16,-9999,139554.054539875,0.4062652587890625,-0.2746429443359375,-0.489044189453125,139554.028507875,-0.5966966885665758,0.07061664578065009,0.4751691911752079
2017-11-24 14:35:49.168 -0800,147,C4D50155-580C-4885-BACB-A13DEF47355A,1511562947.992922,49.27921032921554,-122.9165750176945,345.3676,0.01323581,180.5800519940307,3,16,-9999,139554.084599875,0.361328125,-0.2268829345703125,-0.424163818359375,139554.058567875,-0.4796036207062989,-0.133465116977648,0.5438425283084272
2017-11-24 14:35:49.187 -0800,148,C4D50155-580C-4885-BACB-A13DEF47355A,1511562948.992901,49.27920973580998,-122.9165714212424,345.3581,0.0584772,143.6270893388609,3,16,-9999,139554.114659875,0.29913330078125,-0.296600341796875,-0.3821258544921875,139554.088627875,-0.07110293899569856,-0.1937753293396915,0.5352943138414908
2017-11-24 14:35:49.217 -0800,149,C4D50155-580C-4885-BACB-A13DEF47355A,1511562948.992901,49.27920973580998,-122.9165714212424,345.3581,0.0584772,143.6270893388609,3,16,-9999,139554.144718875,0.273651123046875,-0.3055267333984375,-0.4039154052734375,139554.118687875,0.4316651231882185,-0.01792919940674045,0.6832680661217816
2017-11-24 14:35:49.251 -0800,150,C4D50155-580C-4885-BACB-A13DEF47355A,1511562948.992901,49.27920973580998,-122.9165714212424,345.3581,0.0584772,143.6270893388609,3,16,-9999,139554.174778875,0.274322509765625,-0.3683013916015625,-0.421051025390625,139554.148747875,0.579060170563635,0.06350520672181149,0.6425845520452951
2017-11-24 14:35:49.277 -0800,151,C4D50155-580C-4885-BACB-A13DEF47355A,1511562948.992901,49.27920973580998,-122.9165714212424,345.3581,0.0584772,143.6270893388609,3,16,-9999,139554.204825125,0.3827056884765625,-0.5573883056640625,-0.6095123291015625,139554.178806875,0.625810099287213,0.361370719899468,0.07093169773760646
2017-11-24 14:35:49.308 -0800,152,C4D50155-580C-4885-BACB-A13DEF47355A,1511562948.992901,49.27920973580998,-122.9165714212424,345.3581,0.0584772,143.6270893388609,3,16,-9999,139554.234885125,0.4718475341796875,-0.7225189208984375,-0.781829833984375,139554.208853125,0.563865504964188,0.3965020757353573,0.08369729410679229
2017-11-24 14:35:49.337 -0800,153,C4D50155-580C-4885-BACB-A13DEF47355A,1511562948.992901,49.27920973580998,-122.9165714212424,345.3581,0.0584772,143.6270893388609,3,16,-9999,139554.264945125,0.5318603515625,-0.6121826171875,-0.9532623291015625,139554.238913125,-0.3225966923245683,-0.02218439819646906,0.4002475454924447
2017-11-24 14:35:49.368 -0800,154,C4D50155-580C-4885-BACB-A13DEF47355A,1511562948.992901,49.27920973580998,-122.9165714212424,345.3581,0.0584772,143.6270893388609,3,16,-9999,139554.295004125,0.5541229248046875,-0.695526123046875,-1.028564453125,139554.268973125,-0.9482829546210927,-0.5189560868699638,0.06417579068429345
2017-11-24 14:35:49.403 -0800,155,C4D50155-580C-4885-BACB-A13DEF47355A,1511562948.992901,49.27920973580998,-122.9165714212424,345.3581,0.0584772,143.6270893388609,3,16,-9999,139554.325064125,0.5817718505859375,-0.69049072265625,-1.136810302734375,139554.299033125,-0.5209063197362288,-0.5198573005828465,0.03378592685318125
2017-11-24 14:35:49.428 -0800,156,C4D50155-580C-4885-BACB-A13DEF47355A,1511562948.992901,49.27920973580998,-122.9165714212424,345.3581,0.0584772,143.6270893388609,3,16,-9999,139554.355124125,0.536895751953125,-0.5574951171875,-1.049530029296875,139554.329093125,0.1247768202373735,-0.9840263048754821,0.119045963887632
2017-11-24 14:35:49.458 -0800,157,C4D50155-580C-4885-BACB-A13DEF47355A,1511562948.992901,49.27920973580998,-122.9165714212424,345.3581,0.0584772,143.6270893388609,3,16,-9999,139554.385184125,0.485015869140625,-0.54638671875,-0.907470703125,139554.359152125,0.7386671431176098,-1.408267866525105,-0.183305377830154
2017-11-24 14:35:49.488 -0800,158,C4D50155-580C-4885-BACB-A13DEF47355A,1511562948.992901,49.27920973580998,-122.9165714212424,345.3581,0.0584772,143.6270893388609,3,16,-9999,139554.415244125,0.454803466796875,-0.464813232421875,-0.9233856201171875,139554.389212125,1.148944419591402,-1.403745020045823,-0.2661105129717697
2017-11-24 14:35:49.518 -0800,159,C4D50155-580C-4885-BACB-A13DEF47355A,1511562948.992901,49.27920973580998,-122.9165714212424,345.3581,0.0584772,143.6270893388609,3,16,-9999,139554.445334125,0.4461212158203125,-0.455963134765625,-0.9539947509765625,139554.419272125,0.6184046472440297,-1.224960358166079,-0.5360463905333293
2017-11-24 14:35:49.548 -0800,160,C4D50155-580C-4885-BACB-A13DEF47355A,1511562948.992901,49.27920973580998,-122.9165714212424,345.3581,0.0584772,143.6270893388609,3,16,-9999,139554.475394125,0.605377197265625,-0.634063720703125,-1.2237548828125,139554.449332125,-0.08508852946024968,0.07925647298908516,-1.043627850071456
2017-11-24 14:35:49.578 -0800,161,C4D50155-580C-4885-BACB-A13DEF47355A,1511562948.992901,49.27920973580998,-122.9165714212424,345.3581,0.0584772,143.6270893388609,3,16,-9999,139554.505454125,0.7371368408203125,-0.50860595703125,-1.50299072265625,139554.479392125,0.1824515683846746,1.173232448732925,-0.7829267499058548
2017-11-24 14:35:49.608 -0800,162,C4D50155-580C-4885-BACB-A13DEF47355A,1511562948.992901,49.27920973580998,-122.9165714212424,345.3581,0.0584772,143.6270893388609,3,16,-9999,139554.535513125,0.467376708984375,-0.427215576171875,-1.073638916015625,139554.509451125,0.8523913121989366,-0.1806238409285532,-0.3749922562430053
2017-11-24 14:35:49.655 -0800,163,C4D50155-580C-4885-BACB-A13DEF47355A,1511562948.992901,49.27920973580998,-122.9165714212424,345.3581,0.0584772,143.6270893388609,3,16,-9999,139554.565573125,0.2593231201171875,-0.36737060546875,-0.619384765625,139554.539511125,1.25400292880172,-1.01861038110736,-0.4068143681083621
2017-11-24 14:35:49.668 -0800,164,C4D50155-580C-4885-BACB-A13DEF47355A,1511562948.992901,49.27920973580998,-122.9165714212424,345.3581,0.0584772,143.6270893388609,3,16,-9999,139554.595633125,0.1820220947265625,-0.2889862060546875,-0.45794677734375,139554.569571125,1.512421433597014,-0.821986800981829,-0.3079743400433793
2017-11-24 14:35:49.698 -0800,165,C4D50155-580C-4885-BACB-A13DEF47355A,1511562948.992901,49.27920973580998,-122.9165714212424,345.3581,0.0584772,143.6270893388609,3,16,-9999,139554.625693125,0.2066802978515625,-0.237030029296875,-0.4590301513671875,139554.599631125,1.384010730052227,-0.6680350510026374,-0.1908623637393628
2017-11-24 14:35:49.732 -0800,166,C4D50155-580C-4885-BACB-A13DEF47355A,1511562948.992901,49.27920973580998,-122.9165714212424,345.3581,0.0584772,143.6270893388609,3,16,-9999,139554.655753125,0.26629638671875,-0.2256317138671875,-0.518310546875,139554.629691125,0.8990922387584571,-0.9173796333318132,-0.1780925063124329
2017-11-24 14:35:49.759 -0800,167,C4D50155-580C-4885-BACB-A13DEF47355A,1511562948.992901,49.27920973580998,-122.9165714212424,345.3581,0.0584772,143.6270893388609,3,16,-9999,139554.685813125,0.3355865478515625,-0.169708251953125,-0.4797515869140625,139554.659750125,0.7069113439633961,-1.276581208523412,-0.2154800922238373
2017-11-24 14:35:49.788 -0800,168,C4D50155-580C-4885-BACB-A13DEF47355A,1511562948.992901,49.27920973580998,-122.9165714212424,345.3581,0.0584772,143.6270893388609,3,16,-9999,139554.715872125,0.491119384765625,-0.1850738525390625,-0.469451904296875,139554.689810125,0.8871684676098454,-0.8364229983028214,-0.3674235524250001
2017-11-24 14:35:49.818 -0800,169,C4D50155-580C-4885-BACB-A13DEF47355A,1511562948.992901,49.27920973580998,-122.9165714212424,345.3581,0.0584772,143.6270893388609,3,16,-9999,139554.745932125,0.6261444091796875,-0.2533721923828125,-0.6924896240234375,139554.719870125,1.053072218245203,0.4800992349851626,-0.4739137770373446
2017-11-24 14:35:49.848 -0800,170,C4D50155-580C-4885-BACB-A13DEF47355A,1511562948.992901,49.27920973580998,-122.9165714212424,345.3581,0.0584772,143.6270893388609,3,16,-9999,139554.775992125,0.9078521728515625,-0.2468109130859375,-0.9372100830078125,139554.749930125,0.7336060717820233,1.40733229803416,-0.6381722267512518
2017-11-24 14:35:49.879 -0800,171,C4D50155-580C-4885-BACB-A13DEF47355A,1511562948.992901,49.27920973580998,-122.9165714212424,345.3581,0.0584772,143.6270893388609,3,16,-9999,139554.806052125,0.97821044921875,-0.310028076171875,-1.057403564453125,139554.779990125,-0.174802969733967,1.378387199094416,-0.5146473585423246
2017-11-24 14:35:49.909 -0800,172,C4D50155-580C-4885-BACB-A13DEF47355A,1511562948.992901,49.27920973580998,-122.9165714212424,345.3581,0.0584772,143.6270893388609,3,16,-9999,139554.836112125,0.8767242431640625,-0.2926483154296875,-0.94317626953125,139554.810050125,-0.9607782401396354,0.6440769875201755,-0.0183305377830154
2017-11-24 14:35:49.939 -0800,173,C4D50155-580C-4885-BACB-A13DEF47355A,1511562948.992901,49.27920973580998,-122.9165714212424,345.3581,0.0584772,143.6270893388609,3,16,-9999,139554.866171125,0.793792724609375,-0.2454681396484375,-0.7784881591796875,139554.840109125,-1.25236535104743,0.2983560674504491,0.2891836080239982
2017-11-24 14:35:49.969 -0800,174,C4D50155-580C-4885-BACB-A13DEF47355A,1511562948.992901,49.27920973580998,-122.9165714212424,345.3581,0.0584772,143.6270893388609,3,16,-9999,139554.896231125,0.75616455078125,-0.342437744140625,-0.751129150390625,139554.870169125,-0.9153977088485762,0.5437298765943168,0.3119562985052658
2017-11-24 14:35:49.999 -0800,175,C4D50155-580C-4885-BACB-A13DEF47355A,1511562948.992901,49.27920973580998,-122.9165714212424,345.3581,0.0584772,143.6270893388609,3,16,-9999,139554.926291125,0.82928466796875,-0.407623291015625,-0.8527984619140625,139554.900229125,-0.8481108133788522,0.8914521622232378,0.4044377631515754
2017-11-24 14:35:50.029 -0800,176,C4D50155-580C-4885-BACB-A13DEF47355A,1511562948.992901,49.27920973580998,-122.9165714212424,345.3581,0.0584772,143.6270893388609,3,16,-9999,139554.956351125,0.8133087158203125,-0.40155029296875,-0.8294830322265625,139554.930289125,-1.336850141888559,0.5127626394388755,0.3583315204634696
2017-11-24 14:35:50.059 -0800,177,C4D50155-580C-4885-BACB-A13DEF47355A,1511562948.992901,49.27920973580998,-122.9165714212424,345.3581,0.0584772,143.6270893388609,3,16,-9999,139554.986411125,0.68701171875,-0.4697723388671875,-0.7029266357421875,139554.960349125,-1.702316004596242,-0.06439523515811597,0.1725770996948787
2017-11-24 14:35:50.089 -0800,178,C4D50155-580C-4885-BACB-A13DEF47355A,1511562948.992901,49.27920973580998,-122.9165714212424,345.3581,0.0584772,143.6270893388609,3,16,-9999,139555.016470125,0.5757904052734375,-0.4552764892578125,-0.578033447265625,139554.990408125,-1.498269661880442,-0.03415663887692028,0.2232160425582994
2017-11-24 14:35:50.130 -0800,179,C4D50155-580C-4885-BACB-A13DEF47355A,1511562948.992901,49.27920973580998,-122.9165714212424,345.3581,0.0584772,143.6270893388609,3,16,-9999,139555.046530125,0.5312347412109375,-0.57305908203125,-0.4117279052734375,139555.020468125,-0.9504877856875693,0.1367304187901942,0.0827332297921836
2017-11-24 14:35:50.149 -0800,180,C4D50155-580C-4885-BACB-A13DEF47355A,1511562948.992901,49.27920973580998,-122.9165714212424,345.3581,0.0584772,143.6270893388609,3,16,-9999,139555.076590125,0.4334716796875,-0.5514678955078125,-0.361480712890625,139555.050528125,0.1601052499939287,0.5659070842558427,0.2085196543988062
2017-11-24 14:35:50.179 -0800,181,C4D50155-580C-4885-BACB-A13DEF47355A,1511562949.992882,49.27920833072282,-122.9165714335529,345.3739,0.0584772,171.3383689148965,3,16,-9999,139555.106650125,0.302734375,-0.5247955322265625,-0.356597900390625,139555.080588125,0.2383518522976558,0.8910143385400288,0.5010902706971672
2017-11-24 14:35:50.209 -0800,182,C4D50155-580C-4885-BACB-A13DEF47355A,1511562949.992882,49.27920833072282,-122.9165714335529,345.3739,0.0584772,171.3383689148965,3,16,-9999,139555.136710125,0.2905731201171875,-0.49774169921875,-0.495208740234375,139555.110648125,-0.5763557304766596,0.9914061905722007,0.5596574441257537
2017-11-24 14:35:50.239 -0800,183,C4D50155-580C-4885-BACB-A13DEF47355A,1511562949.992882,49.27920833072282,-122.9165714335529,345.3739,0.0584772,171.3383689148965,3,16,-9999,139555.166770125,0.309356689453125,-0.405609130859375,-0.6269683837890625,139555.140708125,-1.411135824703011,0.4669277728658487,0.6014568226989834
2017-11-24 14:35:50.270 -0800,184,C4D50155-580C-4885-BACB-A13DEF47355A,1511562949.992882,49.27920833072282,-122.9165714335529,345.3739,0.0584772,171.3383689148965,3,16,-9999,139555.196812,0.2911834716796875,-0.38409423828125,-0.5512847900390625,139555.170767125,-1.675458291318902,-0.355890733324412,0.6360635358001271
2017-11-24 14:35:50.299 -0800,185,C4D50155-580C-4885-BACB-A13DEF47355A,1511562949.992882,49.27920833072282,-122.9165714335529,345.3739,0.0584772,171.3383689148965,3,16,-9999,139555.226872,0.2423248291015625,-0.4524993896484375,-0.459075927734375,139555.20081,-0.6788517460861032,-0.3780775283658621,0.5172359511218816
2017-11-24 14:35:50.329 -0800,186,C4D50155-580C-4885-BACB-A13DEF47355A,1511562949.992882,49.27920833072282,-122.9165714335529,345.3739,0.0584772,171.3383689148965,3,16,-9999,139555.256932,0.268798828125,-0.52630615234375,-0.58514404296875,139555.23087,0.4462941333721328,0.3568215081253946,0.5259785763483936
2017-11-24 14:35:50.362 -0800,187,C4D50155-580C-4885-BACB-A13DEF47355A,1511562949.992882,49.27920833072282,-122.9165714335529,345.3739,0.0584772,171.3383689148965,3,16,-9999,139555.286992,0.391937255859375,-0.6292877197265625,-0.782196044921875,139555.26093,0.6425001298387396,0.7639767608532869,0.4231720361558468
2017-11-24 14:35:50.390 -0800,188,C4D50155-580C-4885-BACB-A13DEF47355A,1511562949.992882,49.27920833072282,-122.9165714335529,345.3739,0.0584772,171.3383689148965,3,16,-9999,139555.317052,0.4957427978515625,-0.7485504150390625,-0.933258056640625,139555.29099,0.4495562393913708,0.4897321549640882,0.3381170625253321
2017-11-24 14:35:50.420 -0800,189,C4D50155-580C-4885-BACB-A13DEF47355A,1511562949.992882,49.27920833072282,-122.9165714335529,345.3739,0.0584772,171.3383689148965,3,16,-9999,139555.347111,0.4487457275390625,-0.757476806640625,-0.9346771240234375,139555.321049,0.1541948965867158,-0.1592631584572456,0.5363510561620343
2017-11-24 14:35:50.449 -0800,190,C4D50155-580C-4885-BACB-A13DEF47355A,1511562949.992882,49.27920833072282,-122.9165714335529,345.3739,0.0584772,171.3383689148965,3,16,-9999,139555.377171,0.45166015625,-0.674102783203125,-1.061492919921875,139555.351109,-0.5937999682488966,-0.3295046658761249,0.5465765294835025
2017-11-24 14:35:50.480 -0800,191,C4D50155-580C-4885-BACB-A13DEF47355A,1511562949.992882,49.27920833072282,-122.9165714335529,345.3739,0.0584772,171.3383689148965,3,16,-9999,139555.407231,0.4595489501953125,-0.5557098388671875,-1.186782836914062,139555.381169,-0.8638897765214627,-0.5260115995459107,0.3890276478199409
2017-11-24 14:35:50.510 -0800,192,C4D50155-580C-4885-BACB-A13DEF47355A,1511562949.992882,49.27920833072282,-122.9165714335529,345.3739,0.0584772,171.3383689148965,3,16,-9999,139555.437291,0.372222900390625,-0.4519500732421875,-1.091140747070312,139555.411229,-0.2362671297963418,-1.337658411279398,0.1529970067283982
2017-11-24 14:35:50.540 -0800,193,C4D50155-580C-4885-BACB-A13DEF47355A,1511562949.992882,49.27920833072282,-122.9165714335529,345.3739,0.0584772,171.3383689148965,3,16,-9999,139555.467351,0.290985107421875,-0.380706787109375,-0.942047119140625,139555.441289,0.4638603439222954,-1.756632506608953,-0.2487818563908421
2017-11-24 14:35:50.570 -0800,194,C4D50155-580C-4885-BACB-A13DEF47355A,1511562949.992882,49.27920833072282,-122.9165714335529,345.3739,0.0584772,171.3383689148965,3,16,-9999,139555.49741,0.283782958984375,-0.3984832763671875,-0.8794708251953125,139555.471348,1.007881037707649,-1.317834905389284,-0.7290131841660726
2017-11-24 14:35:50.605 -0800,195,C4D50155-580C-4885-BACB-A13DEF47355A,1511562949.992882,49.27920833072282,-122.9165714335529,345.3739,0.0584772,171.3383689148965,3,16,-9999,139555.52747,0.4556121826171875,-0.5785064697265625,-0.9842987060546875,139555.501408,1.151663773380482,-0.3208480607528224,-1.381203758263283
2017-11-24 14:35:50.630 -0800,196,C4D50155-580C-4885-BACB-A13DEF47355A,1511562949.992882,49.27920833072282,-122.9165714335529,345.3739,0.0584772,171.3383689148965,3,16,-9999,139555.55753,0.720428466796875,-0.6767730712890625,-1.420516967773438,139555.531499,0.6202669957943221,1.282639633687233,-1.490317729181574
2017-11-24 14:35:50.660 -0800,197,C4D50155-580C-4885-BACB-A13DEF47355A,1511562949.992882,49.27920833072282,-122.9165714335529,345.3739,0.0584772,171.3383689148965,3,16,-9999,139555.58759,0.707611083984375,-0.4952239990234375,-1.360015869140625,139555.561558,0.3771954894128279,0.6529101602237504,-0.7890909025649522
2017-11-24 14:35:50.690 -0800,198,C4D50155-580C-4885-BACB-A13DEF47355A,1511562949.992882,49.27920833072282,-122.9165714335529,345.3739,0.0584772,171.3383689148965,3,16,-9999,139555.61765,0.417327880859375,-0.35589599609375,-0.8572845458984375,139555.591618,0.4702189073409686,-1.063500890757845,-0.4426791585084592
2017-11-24 14:35:50.720 -0800,199,C4D50155-580C-4885-BACB-A13DEF47355A,1511562949.992882,49.27920833072282,-122.9165714335529,345.3739,0.0584772,171.3383689148965,3,16,-9999,139555.64771,0.215728759765625,-0.2449951171875,-0.48980712890625,139555.621678,0.7313154869284462,-1.494866674639538,-0.434640140441946
2017-11-24 14:35:50.752 -0800,200,C4D50155-580C-4885-BACB-A13DEF47355A,1511562949.992882,49.27920833072282,-122.9165714335529,345.3739,0.0584772,171.3383689148965,3,16,-9999,139555.677769,0.2116851806640625,-0.2175140380859375,-0.411285400390625,139555.651738,1.020688445705949,-1.067825598052025,-0.4941996076926962
2017-11-24 14:35:50.780 -0800,201,C4D50155-580C-4885-BACB-A13DEF47355A,1511562949.992882,49.27920833072282,-122.9165714335529,345.3739,0.0584772,171.3383689148965,3,16,-9999,139555.707829,0.2598724365234375,-0.2190093994140625,-0.514190673828125,139555.681798,1.120940215464783,-0.618114362685211,-0.5338024109988284
2017-11-24 14:35:50.810 -0800,202,C4D50155-580C-4885-BACB-A13DEF47355A,1511562949.992882,49.27920833072282,-122.9165714335529,345.3739,0.0584772,171.3383689148965,3,16,-9999,139555.737889,0.27880859375,-0.23583984375,-0.4766387939453125,139555.711858,1.118872803510554,-0.889780762323104,-0.5015270291159402
2017-11-24 14:35:50.849 -0800,203,C4D50155-580C-4885-BACB-A13DEF47355A,1511562949.992882,49.27920833072282,-122.9165714335529,345.3739,0.0584772,171.3383689148965,3,16,-9999,139555.767949,0.407196044921875,-0.27325439453125,-0.4838714599609375,139555.741917,0.9991658430403646,-0.7886922273497673,-0.5183848388161417
2017-11-24 14:35:50.871 -0800,204,C4D50155-580C-4885-BACB-A13DEF47355A,1511562949.992882,49.27920833072282,-122.9165714335529,345.3739,0.0584772,171.3383689148965,3,16,-9999,139555.798009,0.556304931640625,-0.3194580078125,-0.6415863037109375,139555.771977,0.8783113264564598,0.08686326001067848,-0.4834100768523491
2017-11-24 14:35:50.901 -0800,205,C4D50155-580C-4885-BACB-A13DEF47355A,1511562949.992882,49.27920833072282,-122.9165714335529,345.3739,0.0584772,171.3383689148965,3,16,-9999,139555.828068,0.81964111328125,-0.3141937255859375,-0.8894500732421875,139555.802037,0.8199558743345345,0.8920753419183163,-0.3336536045383593
2017-11-24 14:35:50.931 -0800,206,C4D50155-580C-4885-BACB-A13DEF47355A,1511562949.992882,49.27920833072282,-122.9165714335529,345.3739,0.0584772,171.3383689148965,3,16,-9999,139555.858128,0.9467620849609375,-0.3351287841796875,-1.024337768554688,139555.832097,0.01293657131116891,1.030562648079636,-0.220613068908856
2017-11-24 14:35:50.961 -0800,207,C4D50155-580C-4885-BACB-A13DEF47355A,1511562949.992882,49.27920833072282,-122.9165714335529,345.3739,0.0584772,171.3383689148965,3,16,-9999,139555.888188,0.931396484375,-0.2981414794921875,-0.886871337890625,139555.862157,-0.5629065006556504,0.4422250895426007,0.2639869083185405
2017-11-24 14:35:50.992 -0800,208,C4D50155-580C-4885-BACB-A13DEF47355A,1511562949.992882,49.27920833072282,-122.9165714335529,345.3739,0.0584772,171.3383689148965,3,16,-9999,139555.918248,0.8393096923828125,-0.3529815673828125,-0.6961517333984375,139555.892216,-0.2098765349742016,0.1853208581431259,0.5325805526907001
2017-11-24 14:35:51.021 -0800,209,C4D50155-580C-4885-BACB-A13DEF47355A,1511562949.992882,49.27920833072282,-122.9165714335529,345.3739,0.0584772,171.3383689148965,3,16,-9999,139555.948308,0.784576416015625,-0.4097137451171875,-0.7162322998046875,139555.922276,-0.3081818002922965,0.5597368063262381,0.7539419698658684
2017-11-24 14:35:51.051 -0800,210,C4D50155-580C-4885-BACB-A13DEF47355A,1511562949.992882,49.27920833072282,-122.9165714335529,345.3739,0.0584772,171.3383689148965,3,16,-9999,139555.978368,0.87890625,-0.3620147705078125,-0.8099822998046875,139555.952336,-1.394381345653105,0.8432811707419935,0.7770912313252731
2017-11-24 14:35:51.091 -0800,211,C4D50155-580C-4885-BACB-A13DEF47355A,1511562949.992882,49.27920833072282,-122.9165714335529,345.3739,0.0584772,171.3383689148965,3,16,-9999,139556.008427,0.8950347900390625,-0.4134368896484375,-0.866851806640625,139555.982396,-2.149313745128373,0.6998683481445724,0.6011377760003919
2017-11-24 14:35:51.111 -0800,212,C4D50155-580C-4885-BACB-A13DEF47355A,1511562949.992882,49.27920833072282,-122.9165714335529,345.3739,0.0584772,171.3383689148965,3,16,-9999,139556.038518,0.7927398681640625,-0.411712646484375,-0.820770263671875,139556.012456,-2.11587456184912,0.525890159400203,0.5343345105846263
2017-11-24 14:35:51.141 -0800,213,C4D50155-580C-4885-BACB-A13DEF47355A,1511562949.992882,49.27920833072282,-122.9165714335529,345.3739,0.0584772,171.3383689148965,3,16,-9999,139556.068577,0.5660858154296875,-0.366790771484375,-0.609130859375,139556.042515,-1.563759988878798,0.2732642962919405,0.4950076107674262
2017-11-24 14:35:51.171 -0800,214,C4D50155-580C-4885-BACB-A13DEF47355A,1511562950.992861,49.27921133874216,-122.9165902482432,345.3755,0.706791,144.9232543376542,3,16,-9999,139556.098637,0.378753662109375,-0.33990478515625,-0.4738616943359375,139556.072575,-1.103490917686475,0.325474770514617,0.3781454389736592
2017-11-24 14:35:51.201 -0800,215,C4D50155-580C-4885-BACB-A13DEF47355A,1511562950.992861,49.27921133874216,-122.9165902482432,345.3755,0.706791,144.9232543376542,3,16,-9999,139556.128697,0.3461151123046875,-0.3483734130859375,-0.437255859375,139556.102635,-1.037502845880382,0.5791328748613942,0.2353387518403401
2017-11-24 14:35:51.250 -0800,216,C4D50155-580C-4885-BACB-A13DEF47355A,1511562950.992861,49.27921133874216,-122.9165902482432,345.3755,0.706791,144.9232543376542,3,16,-9999,139556.158757,0.31353759765625,-0.3879547119140625,-0.4400177001953125,139556.132695,-0.6831681975809036,0.718606083258261,0.1029034792562257
2017-11-24 14:35:51.261 -0800,217,C4D50155-580C-4885-BACB-A13DEF47355A,1511562950.992861,49.27921133874216,-122.9165902482432,345.3755,0.706791,144.9232543376542,3,16,-9999,139556.188824625,0.23382568359375,-0.373931884765625,-0.40057373046875,139556.162755,-0.3115443074846305,0.5806516756310663,0.2700301534641483
2017-11-24 14:35:51.291 -0800,218,C4D50155-580C-4885-BACB-A13DEF47355A,1511562950.992861,49.27921133874216,-122.9165902482432,345.3755,0.706791,144.9232543376542,3,16,-9999,139556.218884625,0.2094573974609375,-0.343536376953125,-0.4478759765625,139556.192822625,-0.4371429792344025,0.4821509342889597,0.3376632598755827
2017-11-24 14:35:51.327 -0800,219,C4D50155-580C-4885-BACB-A13DEF47355A,1511562950.992861,49.27921133874216,-122.9165902482432,345.3755,0.706791,144.9232543376542,3,16,-9999,139556.248943625,0.2506103515625,-0.4506988525390625,-0.5643768310546875,139556.222881625,-0.6606365231782882,0.4128661353694582,0.1780919736802148
2017-11-24 14:35:51.351 -0800,220,C4D50155-580C-4885-BACB-A13DEF47355A,1511562950.992861,49.27921133874216,-122.9165902482432,345.3755,0.706791,144.9232543376542,3,16,-9999,139556.279003625,0.33209228515625,-0.4890594482421875,-0.7275848388671875,139556.252941625,-0.3052730957497119,0.3578225903791554,0.2706719752868574
2017-11-24 14:35:51.381 -0800,221,C4D50155-580C-4885-BACB-A13DEF47355A,1511562950.992861,49.27921133874216,-122.9165902482432,345.3755,0.706791,144.9232543376542,3,16,-9999,139556.309063625,0.328277587890625,-0.576934814453125,-0.77264404296875,139556.283001625,0.06116854918137597,0.2602789891328232,0.3856880438129816
2017-11-24 14:35:51.412 -0800,222,C4D50155-580C-4885-BACB-A13DEF47355A,1511562950.992861,49.27921133874216,-122.9165902482432,345.3755,0.706791,144.9232543376542,3,16,-9999,139556.339123625,0.371185302734375,-0.6293792724609375,-0.8903350830078125,139556.313061625,0.2553785064109684,0.241820086985266,0.3796613102661323
2017-11-24 14:35:51.441 -0800,223,C4D50155-580C-4885-BACB-A13DEF47355A,1511562950.992861,49.27921133874216,-122.9165902482432,345.3755,0.706791,144.9232543376542,3,16,-9999,139556.369183625,0.37615966796875,-0.6787109375,-0.969818115234375,139556.343121625,0.1101816321993033,-0.04103638292092197,0.3061032030614896
2017-11-24 14:35:51.486 -0800,224,C4D50155-580C-4885-BACB-A13DEF47355A,1511562950.992861,49.27921133874216,-122.9165902482432,345.3755,0.706791,144.9232543376542,3,16,-9999,139556.399242625,0.3584747314453125,-0.670654296875,-1.042404174804688,139556.373180625,-0.573817205325596,-0.4331658144624781,0.3116585570953949
2017-11-24 14:35:51.502 -0800,225,C4D50155-580C-4885-BACB-A13DEF47355A,1511562950.992861,49.27921133874216,-122.9165902482432,345.3755,0.706791,144.9232543376542,3,16,-9999,139556.429302625,0.4261627197265625,-0.6058502197265625,-1.219268798828125,139556.403240625,-0.9140661283035366,-0.2538842067233249,0.1335127875611605
2017-11-24 14:35:51.532 -0800,226,C4D50155-580C-4885-BACB-A13DEF47355A,1511562950.992861,49.27921133874216,-122.9165902482432,345.3755,0.706791,144.9232543376542,3,16,-9999,139556.459362625,0.4728240966796875,-0.508636474609375,-1.372970581054688,139556.433300625,-0.4313870891704142,-0.6080060684517062,-0.04028190938410253
2017-11-24 14:35:51.569 -0800,227,C4D50155-580C-4885-BACB-A13DEF47355A,1511562950.992861,49.27921133874216,-122.9165902482432,345.3755,0.706791,144.9232543376542,3,16,-9999,139556.489422625,0.4614715576171875,-0.4763641357421875,-1.179733276367188,139556.463360625,0.3840970713777682,-1.575625170483428,-0.5444135100461401
2017-11-24 14:35:51.592 -0800,228,C4D50155-580C-4885-BACB-A13DEF47355A,1511562950.992861,49.27921133874216,-122.9165902482432,345.3755,0.706791,144.9232543376542,3,16,-9999,139556.519482625,0.4486846923828125,-0.5025634765625,-1.06146240234375,139556.493420625,0.9665857955287712,-1.43544089807551,-0.7779184091598518
2017-11-24 14:35:51.624 -0800,229,C4D50155-580C-4885-BACB-A13DEF47355A,1511562950.992861,49.27921133874216,-122.9165902482432,345.3755,0.706791,144.9232543376542,3,16,-9999,139556.549542625,0.60687255859375,-0.4989013671875,-1.161773681640625,139556.523480625,1.088662436736914,-0.3278452502008965,-0.8825321704681264
2017-11-24 14:35:51.652 -0800,230,C4D50155-580C-4885-BACB-A13DEF47355A,1511562950.992861,49.27921133874216,-122.9165902482432,345.3755,0.706791,144.9232543376542,3,16,-9999,139556.579601625,0.696929931640625,-0.5303802490234375,-1.300125122070312,139556.553539625,1.148920451141591,0.4804707459572287,-0.8518168683518065
2017-11-24 14:35:51.682 -0800,231,C4D50155-580C-4885-BACB-A13DEF47355A,1511562950.992861,49.27921133874216,-122.9165902482432,345.3755,0.706791,144.9232543376542,3,16,-9999,139556.609661625,0.6359100341796875,-0.414154052734375,-1.192214965820312,139556.583599625,1.178587799368965,0.1541099417479423,-0.4883331964434696
2017-11-24 14:35:51.721 -0800,232,C4D50155-580C-4885-BACB-A13DEF47355A,1511562950.992861,49.27921133874216,-122.9165902482432,345.3755,0.706791,144.9232543376542,3,16,-9999,139556.639721625,0.4330291748046875,-0.3135223388671875,-0.821197509765625,139556.613659625,1.002047649655939,-0.7561031250904676,-0.326819933181216
2017-11-24 14:35:51.742 -0800,233,C4D50155-580C-4885-BACB-A13DEF47355A,1511562950.992861,49.27921133874216,-122.9165902482432,345.3755,0.706791,144.9232543376542,3,16,-9999,139556.669781625,0.29974365234375,-0.2584381103515625,-0.529998779296875,139556.643719625,0.993328726563129,-0.9120873996136077,-0.3050235575555715
2017-11-24 14:35:51.773 -0800,234,C4D50155-580C-4885-BACB-A13DEF47355A,1511562950.992861,49.27921133874216,-122.9165902482432,345.3755,0.706791,144.9232543376542,3,16,-9999,139556.699841625,0.2673187255859375,-0.2191009521484375,-0.3906402587890625,139556.673779625,1.227032031178051,-0.6059280038531174,-0.332934551044038
2017-11-24 14:35:51.803 -0800,235,C4D50155-580C-4885-BACB-A13DEF47355A,1511562950.992861,49.27921133874216,-122.9165902482432,345.3755,0.706791,144.9232543376542,3,16,-9999,139556.729900625,0.2745513916015625,-0.208526611328125,-0.4111175537109375,139556.703838625,1.367995544520927,-0.2931924644128945,-0.3636072425829165
2017-11-24 14:35:51.832 -0800,236,C4D50155-580C-4885-BACB-A13DEF47355A,1511562950.992861,49.27921133874216,-122.9165902482432,345.3755,0.706791,144.9232543376542,3,16,-9999,139556.759960625,0.3004913330078125,-0.191680908203125,-0.4285430908203125,139556.733898625,1.055458676898023,-0.4409715396175004,-0.4090903055759438
2017-11-24 14:35:51.862 -0800,237,C4D50155-580C-4885-BACB-A13DEF47355A,1511562950.992861,49.27921133874216,-122.9165902482432,345.3755,0.706791,144.9232543376542,3,16,-9999,139556.790020625,0.386199951171875,-0.1637420654296875,-0.3883209228515625,139556.763958625,0.8760542974326176,-0.6293667509230139,-0.4532742785892305
2017-11-24 14:35:51.893 -0800,238,C4D50155-580C-4885-BACB-A13DEF47355A,1511562950.992861,49.27921133874216,-122.9165902482432,345.3755,0.706791,144.9232543376542,3,16,-9999,139556.820080625,0.4742584228515625,-0.235687255859375,-0.4531097412109375,139556.794018625,0.9253904218907716,0.01791801413016212,-0.5645970753156327
2017-11-24 14:35:51.923 -0800,239,C4D50155-580C-4885-BACB-A13DEF47355A,1511562950.992861,49.27921133874216,-122.9165902482432,345.3755,0.706791,144.9232543376542,3,16,-9999,139556.850140625,0.693450927734375,-0.2516632080078125,-0.6345062255859375,139556.824078625,0.8158450188758882,0.9804661911302642,-0.5387750653862244
2017-11-24 14:35:51.965 -0800,240,C4D50155-580C-4885-BACB-A13DEF47355A,1511562950.992861,49.27921133874216,-122.9165902482432,345.3755,0.706791,144.9232543376542,3,16,-9999,139556.880199625,0.892822265625,-0.3093109130859375,-0.897979736328125,139556.854137625,0.2243758492130289,1.600316668530098,-0.5152423087298482
2017-11-24 14:35:51.983 -0800,241,C4D50155-580C-4885-BACB-A13DEF47355A,1511562950.992861,49.27921133874216,-122.9165902482432,345.3755,0.706791,144.9232543376542,3,16,-9999,139556.910259625,0.9377288818359375,-0.3038177490234375,-0.9958343505859375,139556.884197625,-0.8258425256080456,1.129009859883832,-0.24225924224902
2017-11-24 14:35:52.013 -0800,242,C4D50155-580C-4885-BACB-A13DEF47355A,1511562950.992861,49.27921133874216,-122.9165902482432,345.3755,0.706791,144.9232543376542,3,16,-9999,139556.940319625,0.8221893310546875,-0.317962646484375,-0.860198974609375,139556.914257625,-1.284703583532044,0.1916261583399975,0.05541825175567688
2017-11-24 14:35:52.046 -0800,243,C4D50155-580C-4885-BACB-A13DEF47355A,1511562950.992861,49.27921133874216,-122.9165902482432,345.3755,0.706791,144.9232543376542,3,16,-9999,139556.970379625,0.7335052490234375,-0.3472442626953125,-0.75091552734375,139556.944317625,-0.9256713853857749,0.1044529063784338,0.336231011841338
2017-11-24 14:35:52.074 -0800,244,C4D50155-580C-4885-BACB-A13DEF47355A,1511562950.992861,49.27921133874216,-122.9165902482432,345.3755,0.706791,144.9232543376542,3,16,-9999,139557.000439625,0.85650634765625,-0.36651611328125,-0.8400726318359375,139556.974377625,-1.160026099203331,0.7678580518259684,0.4994087507848911
2017-11-24 14:35:52.103 -0800,245,C4D50155-580C-4885-BACB-A13DEF47355A,1511562950.992861,49.27921133874216,-122.9165902482432,345.3755,0.706791,144.9232543376542,3,16,-9999,139557.030499625,0.9805755615234375,-0.381011962890625,-1.052200317382812,139557.004437625,-1.567910525437687,1.194368626724339,0.4110083141930189
2017-11-24 14:35:52.133 -0800,246,C4D50155-580C-4885-BACB-A13DEF47355A,1511562950.992861,49.27921133874216,-122.9165902482432,345.3755,0.706791,144.9232543376542,3,16,-9999,139557.060558625,0.8226165771484375,-0.3486480712890625,-1.011611938476562,139557.034496625,-1.788638642905634,0.435075300964065,0.4710348998989689
2017-11-24 14:35:52.163 -0800,247,C4D50155-580C-4885-BACB-A13DEF47355A,1511562950.992861,49.27921133874216,-122.9165902482432,345.3755,0.706791,144.9232543376542,3,16,-9999,139557.090618625,0.614959716796875,-0.325469970703125,-0.7525177001953125,139557.064556625,-1.686470728742488,-0.2768987122315717,0.3435834669788288
2017-11-24 14:35:52.209 -0800,248,C4D50155-580C-4885-BACB-A13DEF47355A,1511562951.99284,49.27920940022359,-122.9165729321188,345.2879,0.706791,134.0817906907413,3,16,-9999,139557.120678625,0.4729461669921875,-0.33551025390625,-0.587677001953125,139557.094616625,-1.011458461999952,-0.1337623257553009,0.1266849751584153
2017-11-24 14:35:52.223 -0800,249,C4D50155-580C-4885-BACB-A13DEF47355A,1511562951.99284,49.27920940022359,-122.9165729321188,345.2879,0.706791,134.0817906907413,3,16,-9999,139557.150738625,0.3913421630859375,-0.3611297607421875,-0.5238189697265625,139557.124706625,-0.5367529271705272,0.1782150117225765,0.1074963668721764
2017-11-24 14:35:52.253 -0800,250,C4D50155-580C-4885-BACB-A13DEF47355A,1511562951.99284,49.27920940022359,-122.9165729321188,345.2879,0.706791,134.0817906907413,3,16,-9999,139557.180798625,0.3683929443359375,-0.39691162109375,-0.460357666015625,139557.154766625,-0.6932666381183751,0.1298027378465711,0.07683539324209411
2017-11-24 14:35:52.284 -0800,251,C4D50155-580C-4885-BACB-A13DEF47355A,1511562951.99284,49.27920940022359,-122.9165729321188,345.2879,0.706791,134.0817906907413,3,16,-9999,139557.210841,0.297515869140625,-0.3773193359375,-0.340087890625,139557.18481,-1.021743323813729,-0.1318440508221168,0.2732648289241585
2017-11-24 14:35:52.313 -0800,252,C4D50155-580C-4885-BACB-A13DEF47355A,1511562951.99284,49.27920940022359,-122.9165729321188,345.2879,0.706791,134.0817906907413,3,16,-9999,139557.240901,0.2440032958984375,-0.358795166015625,-0.290191650390625,139557.21487,-1.217278736317854,-0.01969647310611704,0.7612661954958043
2017-11-24 14:35:52.344 -0800,253,C4D50155-580C-4885-BACB-A13DEF47355A,1511562951.99284,49.27920940022359,-122.9165729321188,345.2879,0.706791,134.0817906907413,3,16,-9999,139557.270961,0.24127197265625,-0.3818817138671875,-0.3850860595703125,139557.24493,-0.5485621823922656,0.4146909333483805,0.8959145549457745
2017-11-24 14:35:52.376 -0800,254,C4D50155-580C-4885-BACB-A13DEF47355A,1511562951.99284,49.27920940022359,-122.9165729321188,345.2879,0.706791,134.0817906907413,3,16,-9999,139557.301021,0.2340087890625,-0.4716033935546875,-0.5576324462890625,139557.274989,-0.2495680215446335,0.4212998339095211,0.9961095993733897
2017-11-24 14:35:52.404 -0800,255,C4D50155-580C-4885-BACB-A13DEF47355A,1511562951.99284,49.27920940022359,-122.9165729321188,345.2879,0.706791,134.0817906907413,3,16,-9999,139557.331081,0.2636871337890625,-0.555694580078125,-0.7616424560546875,139557.305049,-0.6940855601535745,0.04963226797137073,1.148651738187602
2017-11-24 14:35:52.443 -0800,256,C4D50155-580C-4885-BACB-A13DEF47355A,1511562951.99284,49.27920940022359,-122.9165729321188,345.2879,0.706791,134.0817906907413,3,16,-9999,139557.361141,0.3019561767578125,-0.61688232421875,-0.8827362060546875,139557.335109,-0.8348344227125892,-0.6852779537964644,1.107054227225001
2017-11-24 14:35:52.464 -0800,257,C4D50155-580C-4885-BACB-A13DEF47355A,1511562951.99284,49.27920940022359,-122.9165729321188,345.2879,0.706791,134.0817906907413,3,16,-9999,139557.3912,0.2081146240234375,-0.6468963623046875,-0.8510284423828125,139557.365169,-0.7608422202502637,-1.356751678398612,0.9026065461329257
2017-11-24 14:35:52.494 -0800,258,C4D50155-580C-4885-BACB-A13DEF47355A,1511562951.99284,49.27920940022359,-122.9165729321188,345.2879,0.706791,134.0817906907413,3,16,-9999,139557.42126,0.248504638671875,-0.5977630615234375,-1.05548095703125,139557.395229,-0.6251261995192806,-0.6922655558646142,0.5217249754553192
2017-11-24 14:35:52.524 -0800,259,C4D50155-580C-4885-BACB-A13DEF47355A,1511562951.99284,49.27920940022359,-122.9165729321188,345.2879,0.706791,134.0817906907413,3,16,-9999,139557.45132,0.398529052734375,-0.5575103759765625,-1.321426391601562,139557.425288,-0.07844660570159205,0.1729163864177549,0.1319069014238427
2017-11-24 14:35:52.554 -0800,260,C4D50155-580C-4885-BACB-A13DEF47355A,1511562951.99284,49.27920940022359,-122.9165729321188,345.2879,0.706791,134.0817906907413,3,16,-9999,139557.48138,0.407958984375,-0.5213775634765625,-1.364532470703125,139557.455348,0.5535793115698658,-0.1144669247093498,-0.1878588506619714
2017-11-24 14:35:52.584 -0800,261,C4D50155-580C-4885-BACB-A13DEF47355A,1511562951.99284,49.27920940022359,-122.9165729321188,345.2879,0.706791,134.0817906907413,3,16,-9999,139557.51144,0.3748779296875,-0.5037078857421875,-1.236709594726562,139557.485408,0.9865834721541763,-0.9733563499680797,-0.4701411430371383
2017-11-24 14:35:52.614 -0800,262,C4D50155-580C-4885-BACB-A13DEF47355A,1511562951.99284,49.27920940022359,-122.9165729321188,345.2879,0.706791,134.0817906907413,3,16,-9999,139557.541499,0.3004302978515625,-0.42486572265625,-1.124649047851562,139557.515468,0.9619718689402089,-1.52913037259228,-0.5644628519966927
2017-11-24 14:35:52.644 -0800,263,C4D50155-580C-4885-BACB-A13DEF47355A,1511562951.99284,49.27920940022359,-122.9165729321188,345.2879,0.706791,134.0817906907413,3,16,-9999,139557.571559,0.3391571044921875,-0.33453369140625,-1.0836181640625,139557.545528,0.4864601952488168,-1.160491619761877,-0.8690832069632262
2017-11-24 14:35:52.693 -0800,264,C4D50155-580C-4885-BACB-A13DEF47355A,1511562951.99284,49.27920940022359,-122.9165729321188,345.2879,0.706791,134.0817906907413,3,16,-9999,139557.601619,0.4825897216796875,-0.4694061279296875,-1.279861450195312,139557.575588,0.8519550864123816,0.2761213355093776,-1.388493362799049
2017-11-24 14:35:52.704 -0800,265,C4D50155-580C-4885-BACB-A13DEF47355A,1511562951.99284,49.27920940022359,-122.9165729321188,345.2879,0.706791,134.0817906907413,3,16,-9999,139557.631709,0.53924560546875,-0.443695068359375,-1.364822387695312,139557.605647,1.580391163570234,0.8993257979860571,-1.310779126397228
2017-11-24 14:35:52.734 -0800,266,C4D50155-580C-4885-BACB-A13DEF47355A,1511562951.99284,49.27920940022359,-122.9165729321188,345.2879,0.706791,134.0817906907413,3,16,-9999,139557.661769,0.4339141845703125,-0.397247314453125,-1.058273315429688,139557.635707,1.693207727352062,-0.135513620488137,-1.249506713933339
2017-11-24 14:35:52.769 -0800,267,C4D50155-580C-4885-BACB-A13DEF47355A,1511562951.99284,49.27920940022359,-122.9165729321188,345.2879,0.706791,134.0817906907413,3,16,-9999,139557.691829,0.3089141845703125,-0.3242034912109375,-0.70355224609375,139557.665767,1.594550924770076,-0.8898255034294174,-1.155306445119492
2017-11-24 14:35:52.794 -0800,268,C4D50155-580C-4885-BACB-A13DEF47355A,1511562951.99284,49.27920940022359,-122.9165729321188,345.2879,0.706791,134.0817906907413,3,16,-9999,139557.721889,0.2268524169921875,-0.2674102783203125,-0.5288238525390625,139557.695827,1.432065341393835,-0.900266160166964,-1.031776250588385
2017-11-24 14:35:52.824 -0800,269,C4D50155-580C-4885-BACB-A13DEF47355A,1511562951.99284,49.27920940022359,-122.9165729321188,345.2879,0.706791,134.0817906907413,3,16,-9999,139557.751949,0.2787322998046875,-0.1914215087890625,-0.533782958984375,139557.725887,1.3593559836286,-0.6116428812363185,-0.9441518591381618
2017-11-24 14:35:52.854 -0800,270,C4D50155-580C-4885-BACB-A13DEF47355A,1511562951.99284,49.27920940022359,-122.9165729321188,345.2879,0.706791,134.0817906907413,3,16,-9999,139557.782008,0.29656982421875,-0.182891845703125,-0.4651336669921875,139557.755946,1.380543027996835,-0.8961052372798242,-0.9040329352127721
2017-11-24 14:35:52.884 -0800,271,C4D50155-580C-4885-BACB-A13DEF47355A,1511562951.99284,49.27920940022359,-122.9165729321188,345.2879,0.706791,134.0817906907413,3,16,-9999,139557.812068,0.284881591796875,-0.1899566650390625,-0.3870086669921875,139557.786006,1.476350780844653,-1.099074863966905,-0.8378773505741137
2017-11-24 14:35:52.921 -0800,272,C4D50155-580C-4885-BACB-A13DEF47355A,1511562951.99284,49.27920940022359,-122.9165729321188,345.2879,0.706791,134.0817906907413,3,16,-9999,139557.842128,0.41119384765625,-0.20355224609375,-0.42510986328125,139557.816066,1.407659067899913,-0.6394726483115375,-0.8561178735122844
2017-11-24 14:35:52.944 -0800,273,C4D50155-580C-4885-BACB-A13DEF47355A,1511562951.99284,49.27920940022359,-122.9165729321188,345.2879,0.706791,134.0817906907413,3,16,-9999,139557.872188,0.48968505859375,-0.2767791748046875,-0.6172943115234375,139557.846126,1.325439561882005,0.2262134303651836,-0.6694334768910379
2017-11-24 14:35:52.975 -0800,274,C4D50155-580C-4885-BACB-A13DEF47355A,1511562951.99284,49.27920940022359,-122.9165729321188,345.2879,0.706791,134.0817906907413,3,16,-9999,139557.902248,0.683197021484375,-0.2497711181640625,-0.8506622314453125,139557.876186,0.789655759032158,0.7439710947446116,-0.5738622127480184
2017-11-24 14:35:53.006 -0800,275,C4D50155-580C-4885-BACB-A13DEF47355A,1511562951.99284,49.27920940022359,-122.9165729321188,345.2879,0.706791,134.0817906907413,3,16,-9999,139557.932308,0.7886962890625,-0.3824462890625,-0.991943359375,139557.906245,-0.2849585029545875,0.7740019644607812,-0.6127944320916687
2017-11-24 14:35:53.035 -0800,276,C4D50155-580C-4885-BACB-A13DEF47355A,1511562951.99284,49.27920940022359,-122.9165729321188,345.2879,0.706791,134.0817906907413,3,16,-9999,139557.962367,0.8321685791015625,-0.377960205078125,-1.02783203125,139557.936305,-1.026130082761308,0.5467994360667422,-0.1420775136268553
2017-11-24 14:35:53.065 -0800,277,C4D50155-580C-4885-BACB-A13DEF47355A,1511562951.99284,49.27920940022359,-122.9165729321188,345.2879,0.706791,134.0817906907413,3,16,-9999,139557.992427,0.808807373046875,-0.3953094482421875,-0.9879913330078125,139557.966365,-1.242331359008339,0.3067673954373554,0.3244854061696525
2017-11-24 14:35:53.095 -0800,278,C4D50155-580C-4885-BACB-A13DEF47355A,1511562951.99284,49.27920940022359,-122.9165729321188,345.2879,0.706791,134.0817906907413,3,16,-9999,139558.022487,0.764678955078125,-0.4147796630859375,-0.9923095703125,139557.996425,-1.290816869814321,0.3222326382035545,0.6852222937296817
2017-11-24 14:35:53.125 -0800,279,C4D50155-580C-4885-BACB-A13DEF47355A,1511562951.99284,49.27920940022359,-122.9165729321188,345.2879,0.706791,134.0817906907413,3,16,-9999,139558.052547,0.811431884765625,-0.4156951904296875,-1.010971069335938,139558.026485,-1.752289157187143,0.3804839607268577,0.7289460725066027
2017-11-24 14:35:53.165 -0800,280,C4D50155-580C-4885-BACB-A13DEF47355A,1511562952.992819,49.27920783374056,-122.9165643487884,345.3599,0.4839113,142.8951662674023,3,16,-9999,139558.082607,0.8346710205078125,-0.3703155517578125,-1.020156860351562,139558.056545,-2.015260868498145,0.4870844402083314,0.7838998689681698
2017-11-24 14:35:53.185 -0800,281,C4D50155-580C-4885-BACB-A13DEF47355A,1511562952.992819,49.27920783374056,-122.9165643487884,345.3599,0.4839113,142.8951662674023,3,16,-9999,139558.112666,0.733673095703125,-0.3733367919921875,-0.904510498046875,139558.086604,-1.840585197864284,0.3233447742747716,0.7548277372444288
2017-11-24 14:35:53.215 -0800,282,C4D50155-580C-4885-BACB-A13DEF47355A,1511562952.992819,49.27920783374056,-122.9165643487884,345.3599,0.4839113,142.8951662674023,3,16,-9999,139558.142726,0.565460205078125,-0.3428802490234375,-0.6744537353515625,139558.116664,-1.608938119927011,0.06830369037391627,0.6787300396242866
2017-11-24 14:35:53.248 -0800,283,C4D50155-580C-4885-BACB-A13DEF47355A,1511562952.992819,49.27920783374056,-122.9165643487884,345.3599,0.4839113,142.8951662674023,3,16,-9999,139558.172786,0.4680938720703125,-0.402740478515625,-0.4661712646484375,139558.146724,-1.215958341049393,0.002045307717180855,0.4220812053733504
2017-11-24 14:35:53.276 -0800,284,C4D50155-580C-4885-BACB-A13DEF47355A,1511562952.992819,49.27920783374056,-122.9165643487884,345.3599,0.4839113,142.8951662674023,3,16,-9999,139558.2028271667,0.392730712890625,-0.4659881591796875,-0.3769073486328125,139558.176784,-0.3945033733372528,0.3102412227632547,0.2923053654537891
2017-11-24 14:35:53.307 -0800,285,C4D50155-580C-4885-BACB-A13DEF47355A,1511562952.992819,49.27920783374056,-122.9165643487884,345.3599,0.4839113,142.8951662674023,3,16,-9999,139558.2328871667,0.327362060546875,-0.4568023681640625,-0.374298095703125,139558.2068251667,-0.02103204839279178,0.6899877541842695,0.5064464202815345
2017-11-24 14:35:53.335 -0800,286,C4D50155-580C-4885-BACB-A13DEF47355A,1511562952.992819,49.27920783374056,-122.9165643487884,345.3599,0.4839113,142.8951662674023,3,16,-9999,139558.2629461667,0.2796630859375,-0.3846282958984375,-0.4064788818359375,139558.2368841667,-0.2629376228490493,0.6679343835134324,0.7061174556424434
2017-11-24 14:35:53.365 -0800,287,C4D50155-580C-4885-BACB-A13DEF47355A,1511562952.992819,49.27920783374056,-122.9165643487884,345.3599,0.4839113,142.8951662674023,3,16,-9999,139558.2930061667,0.2252349853515625,-0.3165740966796875,-0.3891143798828125,139558.2669441667,-0.6115419474310044,0.3003726130278571,0.8104569113584399
2017-11-24 14:35:53.401 -0800,288,C4D50155-580C-4885-BACB-A13DEF47355A,1511562952.992819,49.27920783374056,-122.9165643487884,345.3599,0.4839113,142.8951662674023,3,16,-9999,139558.3230661667,0.2045440673828125,-0.3453216552734375,-0.4053192138671875,139558.2970041667,-0.7109031561213158,0.1521029835504586,0.7763572641288473
2017-11-24 14:35:53.425 -0800,289,C4D50155-580C-4885-BACB-A13DEF47355A,1511562952.992819,49.27920783374056,-122.9165643487884,345.3599,0.4839113,142.8951662674023,3,16,-9999,139558.3531261667,0.2802276611328125,-0.4440765380859375,-0.5653076171875,139558.3270641667,-0.2846652889185698,0.632063201526719,0.6056587582669104
2017-11-24 14:35:53.457 -0800,290,C4D50155-580C-4885-BACB-A13DEF47355A,1511562952.992819,49.27920783374056,-122.9165643487884,345.3599,0.4839113,142.8951662674023,3,16,-9999,139558.3831861667,0.3514251708984375,-0.4918060302734375,-0.748321533203125,139558.3571241667,0.3867210839998233,1.063391434837043,0.6563312569600661
2017-11-24 14:35:53.486 -0800,291,C4D50155-580C-4885-BACB-A13DEF47355A,1511562952.992819,49.27920783374056,-122.9165643487884,345.3599,0.4839113,142.8951662674023,3,16,-9999,139558.4132461667,0.360107421875,-0.5383453369140625,-0.812469482421875,139558.3871841667,0.6560425702979015,0.8887253515831056,0.6959835950624739
2017-11-24 14:35:53.516 -0800,292,C4D50155-580C-4885-BACB-A13DEF47355A,1511562952.992819,49.27920783374056,-122.9165643487884,345.3599,0.4839113,142.8951662674023,3,16,-9999,139558.4433051667,0.3913421630859375,-0.680816650390625,-0.9258575439453125,139558.4172431667,0.3090681003030749,0.4888405286311297,0.4301713561327931
2017-11-24 14:35:53.546 -0800,293,C4D50155-580C-4885-BACB-A13DEF47355A,1511562952.992819,49.27920783374056,-122.9165643487884,345.3599,0.4839113,142.8951662674023,3,16,-9999,139558.4733651667,0.3855133056640625,-0.7064666748046875,-0.9974212646484375,139558.4473031667,-0.1794549795261174,0.06562401768507854,0.3605643147213921
2017-11-24 14:35:53.576 -0800,294,C4D50155-580C-4885-BACB-A13DEF47355A,1511562952.992819,49.27920783374056,-122.9165643487884,345.3599,0.4839113,142.8951662674023,3,16,-9999,139558.5034251667,0.322906494140625,-0.6236114501953125,-1.012298583984375,139558.4773631667,-0.4526628168029483,-0.3806157872008166,0.4618533857248117
2017-11-24 14:35:53.607 -0800,295,C4D50155-580C-4885-BACB-A13DEF47355A,1511562952.992819,49.27920783374056,-122.9165643487884,345.3599,0.4839113,142.8951662674023,3,16,-9999,139558.5334851667,0.30572509765625,-0.5861663818359375,-1.125579833984375,139558.5074231667,-0.5351584926258968,-0.6677026884985955,0.2894733599505988
2017-11-24 14:35:53.650 -0800,296,C4D50155-580C-4885-BACB-A13DEF47355A,1511562952.992819,49.27920783374056,-122.9165643487884,345.3599,0.4839113,142.8951662674023,3,16,-9999,139558.5635451667,0.3278961181640625,-0.5767364501953125,-1.1636962890625,139558.5374831667,-0.1311265952244495,-0.9991823546391231,-0.004834170010711833
2017-11-24 14:35:53.666 -0800,297,C4D50155-580C-4885-BACB-A13DEF47355A,1511562952.992819,49.27920783374056,-122.9165643487884,345.3599,0.4839113,142.8951662674023,3,16,-9999,139558.5936041667,0.2903289794921875,-0.5126953125,-1.076980590820312,139558.5675421667,0.7160206864720121,-1.400812879685646,-0.1688167162356869
2017-11-24 14:35:53.696 -0800,298,C4D50155-580C-4885-BACB-A13DEF47355A,1511562952.992819,49.27920783374056,-122.9165643487884,345.3599,0.4839113,142.8951662674023,3,16,-9999,139558.6236641667,0.27081298828125,-0.59326171875,-0.9949493408203125,139558.5976021667,0.8157025397575689,-1.451306413953548,-0.5935664090212966
2017-11-24 14:35:53.726 -0800,299,C4D50155-580C-4885-BACB-A13DEF47355A,1511562952.992819,49.27920783374056,-122.9165643487884,345.3599,0.4839113,142.8951662674023,3,16,-9999,139558.6537241667,0.4562835693359375,-0.776702880859375,-1.267822265625,139558.6276621667,0.1238284685731963,-0.1493314318040131,-1.040318073468705
2017-11-24 14:35:53.757 -0800,300,C4D50155-580C-4885-BACB-A13DEF47355A,1511562952.992819,49.27920783374056,-122.9165643487884,345.3599,0.4839113,142.8951662674023,3,16,-9999,139558.6837841667,0.7206268310546875,-0.5426025390625,-1.724151611328125,139558.6577221667,-0.1760914070693473,1.188530711298776,-0.5555428602415813
2017-11-24 14:35:53.786 -0800,301,C4D50155-580C-4885-BACB-A13DEF47355A,1511562952.992819,49.27920783374056,-122.9165643487884,345.3599,0.4839113,142.8951662674023,3,16,-9999,139558.7138441667,0.452911376953125,-0.38519287109375,-1.324813842773438,139558.6878121667,0.06518965611128662,-0.656798641731375,-0.07588943842289797
2017-11-24 14:35:53.816 -0800,302,C4D50155-580C-4885-BACB-A13DEF47355A,1511562952.992819,49.27920783374056,-122.9165643487884,345.3599,0.4839113,142.8951662674023,3,16,-9999,139558.7439031667,0.27294921875,-0.2428436279296875,-0.8127593994140625,139558.7178721667,0.2846607615447166,-1.851596303707325,-0.3331502670923344
2017-11-24 14:35:53.846 -0800,303,C4D50155-580C-4885-BACB-A13DEF47355A,1511562952.992819,49.27920783374056,-122.9165643487884,345.3599,0.4839113,142.8951662674023,3,16,-9999,139558.7739631667,0.19085693359375,-0.24169921875,-0.5542449951171875,139558.7479321667,1.128533952997035,-1.519860175153823,-0.6230460043918198
2017-11-24 14:35:53.882 -0800,304,C4D50155-580C-4885-BACB-A13DEF47355A,1511562952.992819,49.27920783374056,-122.9165643487884,345.3599,0.4839113,142.8951662674023,3,16,-9999,139558.8040231667,0.2157135009765625,-0.2389068603515625,-0.54083251953125,139558.7779921667,1.721308604226251,-0.8452889278878043,-0.6338600363141955
2017-11-24 14:35:53.907 -0800,305,C4D50155-580C-4885-BACB-A13DEF47355A,1511562952.992819,49.27920783374056,-122.9165643487884,345.3599,0.4839113,142.8951662674023,3,16,-9999,139558.8340831667,0.2302703857421875,-0.200286865234375,-0.499267578125,139558.8080511667,1.577411885258762,-0.8430079304141513,-0.5301624024209082
2017-11-24 14:35:53.936 -0800,306,C4D50155-580C-4885-BACB-A13DEF47355A,1511562952.992819,49.27920783374056,-122.9165643487884,345.3599,0.4839113,142.8951662674023,3,16,-9999,139558.8641431667,0.2594757080078125,-0.19873046875,-0.446014404296875,139558.8381111667,1.230637951294019,-1.092618562536226,-0.5435549069106986
2017-11-24 14:35:53.967 -0800,307,C4D50155-580C-4885-BACB-A13DEF47355A,1511562952.992819,49.27920783374056,-122.9165643487884,345.3599,0.4839113,142.8951662674023,3,16,-9999,139558.8942031667,0.34619140625,-0.2076568603515625,-0.4942169189453125,139558.8681711667,1.196110866709468,-0.8250531646609461,-0.6158666547251842
2017-11-24 14:35:53.997 -0800,308,C4D50155-580C-4885-BACB-A13DEF47355A,1511562952.992819,49.27920783374056,-122.9165643487884,345.3599,0.4839113,142.8951662674023,3,16,-9999,139558.9242621667,0.3832244873046875,-0.250091552734375,-0.5460205078125,139558.8982311667,1.554624547391499,-0.3250888784726645,-0.5888909634115536
2017-11-24 14:35:54.027 -0800,309,C4D50155-580C-4885-BACB-A13DEF47355A,1511562952.992819,49.27920783374056,-122.9165643487884,345.3599,0.4839113,142.8951662674023,3,16,-9999,139558.9543221667,0.4862213134765625,-0.23345947265625,-0.638885498046875,139558.9282911667,1.436576736280429,0.1568727050627905,-0.586719421858703
2017-11-24 14:35:54.057 -0800,310,C4D50155-580C-4885-BACB-A13DEF47355A,1511562952.992819,49.27920783374056,-122.9165643487884,345.3599,0.4839113,142.8951662674023,3,16,-9999,139558.9843821667,0.650726318359375,-0.314697265625,-0.8310394287109375,139558.9583511667,0.5081740128806689,0.6357151943295447,-0.835633371039613
2017-11-24 14:35:54.087 -0800,311,C4D50155-580C-4885-BACB-A13DEF47355A,1511562952.992819,49.27920783374056,-122.9165643487884,345.3599,0.4839113,142.8951662674023,3,16,-9999,139559.0144421667,0.805389404296875,-0.3887176513671875,-1.005264282226562,139558.9884101667,-0.3675367367713285,0.8137344637120004,-0.8014037615488245
2017-11-24 14:35:54.129 -0800,312,C4D50155-580C-4885-BACB-A13DEF47355A,1511562952.992819,49.27920783374056,-122.9165643487884,345.3599,0.4839113,142.8951662674023,3,16,-9999,139559.0445021667,0.7545623779296875,-0.425750732421875,-0.932220458984375,139559.0184701667,-0.7812785195072047,0.3069511535525709,-0.4561222630589612
2017-11-24 14:35:54.147 -0800,313,C4D50155-580C-4885-BACB-A13DEF47355A,1511562952.992819,49.27920783374056,-122.9165643487884,345.3599,0.4839113,142.8951662674023,3,16,-9999,139559.0745611667,0.7388763427734375,-0.3798828125,-0.7588043212890625,139559.0485301667,-0.9035285325023111,-0.0285647995360809,-0.1295010016950651
2017-11-24 14:35:54.177 -0800,314,C4D50155-580C-4885-BACB-A13DEF47355A,1511562953.992798,49.27920744055583,-122.9165503003687,345.407,0.4839113,110.3982326871271,3,16,-9999,139559.1046211667,0.7507171630859375,-0.4690399169921875,-0.738677978515625,139559.0785901667,-0.9282314821416681,0.3744071597515149,0.04543139766787974
2017-11-24 14:35:54.208 -0800,315,C4D50155-580C-4885-BACB-A13DEF47355A,1511562953.992798,49.27920744055583,-122.9165503003687,345.407,0.4839113,110.3982326871271,3,16,-9999,139559.1346811667,0.8593597412109375,-0.4878692626953125,-0.8614959716796875,139559.1086501667,-1.069371296748707,0.9931782579615395,0.1208888713619669
2017-11-24 14:35:54.237 -0800,316,C4D50155-580C-4885-BACB-A13DEF47355A,1511562953.992798,49.27920744055583,-122.9165503003687,345.407,0.4839113,110.3982326871271,3,16,-9999,139559.1647411667,0.8589324951171875,-0.490020751953125,-0.9264373779296875,139559.1387091667,-1.502437242670307,1.152173768729232,0.1579361052860591
2017-11-24 14:35:54.267 -0800,317,C4D50155-580C-4885-BACB-A13DEF47355A,1511562953.992798,49.27920744055583,-122.9165503003687,345.407,0.4839113,110.3982326871271,3,16,-9999,139559.1948156667,0.7581329345703125,-0.4582366943359375,-0.821929931640625,139559.1687691667,-1.572879984031775,0.855027309045897,0.2984285054320993
2017-11-24 14:35:54.297 -0800,318,C4D50155-580C-4885-BACB-A13DEF47355A,1511562953.992798,49.27920744055583,-122.9165503003687,345.407,0.4839113,110.3982326871271,3,16,-9999,139559.2248756667,0.6051025390625,-0.4940185546875,-0.67694091796875,139559.1988136667,-1.002814107417664,0.7624923148616768,0.3129954639626147
2017-11-24 14:35:54.327 -0800,319,C4D50155-580C-4885-BACB-A13DEF47355A,1511562953.992798,49.27920744055583,-122.9165503003687,345.407,0.4839113,110.3982326871271,3,16,-9999,139559.2549356667,0.451019287109375,-0.4698944091796875,-0.5614471435546875,139559.2288736667,-0.9708564406528223,0.6804970470075541,0.4590900897777455
2017-11-24 14:35:54.367 -0800,320,C4D50155-580C-4885-BACB-A13DEF47355A,1511562953.992798,49.27920744055583,-122.9165503003687,345.407,0.4839113,110.3982326871271,3,16,-9999,139559.2849956667,0.3477630615234375,-0.3685760498046875,-0.5335693359375,139559.2589336667,-1.465230485396919,0.5710946557432081,0.5581676718119634
2017-11-24 14:35:54.387 -0800,321,C4D50155-580C-4885-BACB-A13DEF47355A,1511562953.992798,49.27920744055583,-122.9165503003687,345.407,0.4839113,110.3982326871271,3,16,-9999,139559.3150546667,0.2512664794921875,-0.30010986328125,-0.4850616455078125,139559.2889926667,-1.541724461387265,0.3790714200846797,0.6541341490607507
2017-11-24 14:35:54.417 -0800,322,C4D50155-580C-4885-BACB-A13DEF47355A,1511562953.992798,49.27920744055583,-122.9165503003687,345.407,0.4839113,110.3982326871271,3,16,-9999,139559.3451146667,0.208099365234375,-0.247283935546875,-0.3779144287109375,139559.3190526667,-1.22146762239644,0.2754134672916345,0.6725653543329712
2017-11-24 14:35:54.448 -0800,323,C4D50155-580C-4885-BACB-A13DEF47355A,1511562953.992798,49.27920744055583,-122.9165503003687,345.407,0.4839113,110.3982326871271,3,16,-9999,139559.3751746667,0.2266845703125,-0.3527069091796875,-0.42327880859375,139559.3491126667,-0.5332466092793289,0.687047624340822,0.3980653512952338
2017-11-24 14:35:54.478 -0800,324,C4D50155-580C-4885-BACB-A13DEF47355A,1511562953.992798,49.27920744055583,-122.9165503003687,345.407,0.4839113,110.3982326871271,3,16,-9999,139559.4052346667,0.259002685546875,-0.4368438720703125,-0.5807952880859375,139559.3791726667,-0.1003282024821191,1.032956297267399,0.4526324567665214
2017-11-24 14:35:54.508 -0800,325,C4D50155-580C-4885-BACB-A13DEF47355A,1511562953.992798,49.27920744055583,-122.9165503003687,345.407,0.4839113,110.3982326871271,3,16,-9999,139559.4352946667,0.28790283203125,-0.4280548095703125,-0.6782989501953125,139559.4092326667,-0.4146613722602806,0.7150899116710294,0.6194091916072075
2017-11-24 14:35:54.538 -0800,326,C4D50155-580C-4885-BACB-A13DEF47355A,1511562953.992798,49.27920744055583,-122.9165503003687,345.407,0.4839113,110.3982326871271,3,16,-9999,139559.4653546667,0.3418121337890625,-0.520599365234375,-0.829254150390625,139559.4392926667,-0.7810071433921256,0.5037592907416446,0.5802229066955636
2017-11-24 14:35:54.568 -0800,327,C4D50155-580C-4885-BACB-A13DEF47355A,1511562953.992798,49.27920744055583,-122.9165503003687,345.407,0.4839113,110.3982326871271,3,16,-9999,139559.4954136667,0.3440399169921875,-0.4915313720703125,-1.004470825195312,139559.4693516667,-0.5365673048425488,0.3013752931782719,0.7405894127924291
2017-11-24 14:35:54.611 -0800,328,C4D50155-580C-4885-BACB-A13DEF47355A,1511562953.992798,49.27920744055583,-122.9165503003687,345.407,0.4839113,110.3982326871271,3,16,-9999,139559.5254736667,0.2116546630859375,-0.4936370849609375,-0.9626922607421875,139559.4994116667,-0.6728332683386331,-0.39649328730376,0.7534034786934544
2017-11-24 14:35:54.628 -0800,329,C4D50155-580C-4885-BACB-A13DEF47355A,1511562953.992798,49.27920744055583,-122.9165503003687,345.407,0.4839113,110.3982326871271,3,16,-9999,139559.5555336667,0.27197265625,-0.589691162109375,-1.091644287109375,139559.5294716667,-0.7958579948948435,-0.3593318037689033,0.2269055859324952
2017-11-24 14:35:54.658 -0800,330,C4D50155-580C-4885-BACB-A13DEF47355A,1511562953.992798,49.27920744055583,-122.9165503003687,345.407,0.4839113,110.3982326871271,3,16,-9999,139559.5855936667,0.4056854248046875,-0.6045379638671875,-1.256637573242188,139559.5595316667,-0.2050966934497273,-0.14354464907138,-0.1934429668356496
2017-11-24 14:35:54.691 -0800,331,C4D50155-580C-4885-BACB-A13DEF47355A,1511562953.992798,49.27920744055583,-122.9165503003687,345.407,0.4839113,110.3982326871271,3,16,-9999,139559.6156536667,0.499267578125,-0.65386962890625,-1.198287963867188,139559.5895916667,0.5677891401982017,-0.5776827836478461,-0.4992606790282827
2017-11-24 14:35:54.718 -0800,332,C4D50155-580C-4885-BACB-A13DEF47355A,1511562953.992798,49.27920744055583,-122.9165503003687,345.407,0.4839113,110.3982326871271,3,16,-9999,139559.6457126667,0.4851837158203125,-0.6167144775390625,-1.193206787109375,139559.6196506667,1.027917596484969,-0.848237846162849,-0.4765199464800961
2017-11-24 14:35:54.748 -0800,333,C4D50155-580C-4885-BACB-A13DEF47355A,1511562953.992798,49.27920744055583,-122.9165503003687,345.407,0.4839113,110.3982326871271,3,16,-9999,139559.6757726667,0.4650421142578125,-0.4940948486328125,-1.120513916015625,139559.6497106667,0.6115454095404216,-1.316447132145244,-0.3715487889535328
2017-11-24 14:35:54.778 -0800,334,C4D50155-580C-4885-BACB-A13DEF47355A,1511562953.992798,49.27920744055583,-122.9165503003687,345.407,0.4839113,110.3982326871271,3,16,-9999,139559.7058326667,0.491668701171875,-0.5007476806640625,-1.15679931640625,139559.6797706667,-0.01294056605280403,-0.9826153621299581,-0.5960522035827766
2017-11-24 14:35:54.808 -0800,335,C4D50155-580C-4885-BACB-A13DEF47355A,1511562953.992798,49.27920744055583,-122.9165503003687,345.407,0.4839113,110.3982326871271,3,16,-9999,139559.7358926667,0.5860595703125,-0.4723663330078125,-1.408355712890625,139559.7098306667,0.2686562286577764,0.04699174375055717,-0.5841095239904253
2017-11-24 14:35:54.849 -0800,336,C4D50155-580C-4885-BACB-A13DEF47355A,1511562953.992798,49.27920744055583,-122.9165503003687,345.407,0.4839113,110.3982326871271,3,16,-9999,139559.7659526667,0.503173828125,-0.3569183349609375,-1.289993286132812,139559.7398906667,0.8854872140136782,-0.1668228075275446,-0.4275231087448183
2017-11-24 14:35:54.868 -0800,337,C4D50155-580C-4885-BACB-A13DEF47355A,1511562953.992798,49.27920744055583,-122.9165503003687,345.407,0.4839113,110.3982326871271,3,16,-9999,139559.7960126667,0.3830718994140625,-0.352386474609375,-0.9354095458984375,139559.7699506667,1.258991562155656,-0.7605037324757146,-0.5943419215307277
2017-11-24 14:35:54.898 -0800,338,C4D50155-580C-4885-BACB-A13DEF47355A,1511562953.992798,49.27920744055583,-122.9165503003687,345.407,0.4839113,110.3982326871271,3,16,-9999,139559.8260716667,0.3203277587890625,-0.3030548095703125,-0.694732666015625,139559.8000096667,1.516367439384184,-0.741965734443782,-0.6012389761218149
2017-11-24 14:35:54.928 -0800,339,C4D50155-580C-4885-BACB-A13DEF47355A,1511562953.992798,49.27920744055583,-122.9165503003687,345.407,0.4839113,110.3982326871271,3,16,-9999,139559.8561316667,0.265716552734375,-0.2345733642578125,-0.5339508056640625,139559.8300696667,1.531259303567689,-0.6955084871240038,-0.4753566777159495
2017-11-24 14:35:54.959 -0800,340,C4D50155-580C-4885-BACB-A13DEF47355A,1511562953.992798,49.27920744055583,-122.9165503003687,345.407,0.4839113,110.3982326871271,3,16,-9999,139559.8861916667,0.2443389892578125,-0.1783294677734375,-0.480499267578125,139559.8601296667,1.256249305181202,-0.7713230907202705,-0.4550980113037167
2017-11-24 14:35:54.992 -0800,341,C4D50155-580C-4885-BACB-A13DEF47355A,1511562953.992798,49.27920744055583,-122.9165503003687,345.407,0.4839113,110.3982326871271,3,16,-9999,139559.9162516667,0.2693634033203125,-0.1693267822265625,-0.4893341064453125,139559.8901896667,0.9691181954093276,-0.8309765675575004,-0.576472110616296
2017-11-24 14:35:55.019 -0800,342,C4D50155-580C-4885-BACB-A13DEF47355A,1511562953.992798,49.27920744055583,-122.9165503003687,345.407,0.4839113,110.3982326871271,3,16,-9999,139559.9463116667,0.3073883056640625,-0.1881256103515625,-0.4854583740234375,139559.9202496667,1.286462601432042,-0.794695525079024,-0.4790568737345056
2017-11-24 14:35:55.049 -0800,343,C4D50155-580C-4885-BACB-A13DEF47355A,1511562953.992798,49.27920744055583,-122.9165503003687,345.407,0.4839113,110.3982326871271,3,16,-9999,139559.9763706667,0.3852691650390625,-0.1495819091796875,-0.534027099609375,139559.9503086667,1.313537628654332,-0.4564024276056375,-0.4064846687654103
2017-11-24 14:35:55.084 -0800,344,C4D50155-580C-4885-BACB-A13DEF47355A,1511562953.992798,49.27920744055583,-122.9165503003687,345.407,0.4839113,110.3982326871271,3,16,-9999,139560.0064306667,0.4734039306640625,-0.164794921875,-0.539764404296875,139559.9803686667,1.189764820147919,-0.1885230430378372,-0.5538277844995703
2017-11-24 14:35:55.109 -0800,345,C4D50155-580C-4885-BACB-A13DEF47355A,1511562953.992798,49.27920744055583,-122.9165503003687,345.407,0.4839113,110.3982326871271,3,16,-9999,139560.0364906667,0.70892333984375,-0.298919677734375,-0.7894439697265625,139560.0104286667,0.8013763309895967,0.8354091328758283,-0.7138091975028102
2017-11-24 14:35:55.141 -0800,346,C4D50155-580C-4885-BACB-A13DEF47355A,1511562953.992798,49.27920744055583,-122.9165503003687,345.407,0.4839113,110.3982326871271,3,16,-9999,139560.0665506667,0.8907012939453125,-0.330780029296875,-1.150177001953125,139560.0404886667,-0.283228513510472,1.316086806449756,-0.5529611918808585
2017-11-24 14:35:55.169 -0800,347,C4D50155-580C-4885-BACB-A13DEF47355A,1511562954.992777,49.27920674601638,-122.9165390365183,345.4773,0.6290092,116.0363626016759,3,16,-9999,139560.0966106667,0.794464111328125,-0.250518798828125,-0.9737091064453125,139560.0705486667,-1.207914795609027,0.1555648266514526,-0.06342690978576317
2017-11-24 14:35:55.199 -0800,348,C4D50155-580C-4885-BACB-A13DEF47355A,1511562954.992777,49.27920674601638,-122.9165390365183,345.4773,0.6290092,116.0363626016759,3,16,-9999,139560.1266696667,0.68389892578125,-0.302825927734375,-0.7177581787109375,139560.1006076667,-1.168386028181198,-0.2373563626821842,0.1022643205946067
2017-11-24 14:35:55.229 -0800,349,C4D50155-580C-4885-BACB-A13DEF47355A,1511562954.992777,49.27920674601638,-122.9165390365183,345.4773,0.6290092,116.0363626016759,3,16,-9999,139560.1567296667,0.7042999267578125,-0.293212890625,-0.791839599609375,139560.1306676667,-0.9275462507931906,0.6594112027607427,0.3098838265449661
2017-11-24 14:35:55.259 -0800,350,C4D50155-580C-4885-BACB-A13DEF47355A,1511562954.992777,49.27920674601638,-122.9165390365183,345.4773,0.6290092,116.0363626016759,3,16,-9999,139560.186797375,0.7684478759765625,-0.2417144775390625,-0.8300323486328125,139560.1607276667,-1.255330780921234,0.8564110875483022,0.3202536431975166
2017-11-24 14:35:55.290 -0800,351,C4D50155-580C-4885-BACB-A13DEF47355A,1511562954.992777,49.27920674601638,-122.9165390365183,345.4773,0.6290092,116.0363626016759,3,16,-9999,139560.216857375,0.8288116455078125,-0.3584747314453125,-0.893096923828125,139560.190795375,-1.546647314662276,0.9371104612159923,0.01196185435219991
2017-11-24 14:35:55.323 -0800,352,C4D50155-580C-4885-BACB-A13DEF47355A,1511562954.992777,49.27920674601638,-122.9165390365183,345.4773,0.6290092,116.0363626016759,3,16,-9999,139560.246917375,0.7960357666015625,-0.37432861328125,-1.0401611328125,139560.220885375,-1.570700985627872,1.171331750662935,0.2173411091935847
2017-11-24 14:35:55.349 -0800,353,C4D50155-580C-4885-BACB-A13DEF47355A,1511562954.992777,49.27920674601638,-122.9165390365183,345.4773,0.6290092,116.0363626016759,3,16,-9999,139560.276977375,0.652862548828125,-0.3079376220703125,-0.909942626953125,139560.250945375,-1.680120421123194,0.5813387711923068,0.417027058256598
2017-11-24 14:35:55.379 -0800,354,C4D50155-580C-4885-BACB-A13DEF47355A,1511562954.992777,49.27920674601638,-122.9165390365183,345.4773,0.6290092,116.0363626016759,3,16,-9999,139560.307036375,0.4789276123046875,-0.329833984375,-0.6083984375,139560.281005375,-1.459955828541908,-0.003578489556739472,0.2920630177945919
2017-11-24 14:35:55.409 -0800,355,C4D50155-580C-4885-BACB-A13DEF47355A,1511562954.992777,49.27920674601638,-122.9165390365183,345.4773,0.6290092,116.0363626016759,3,16,-9999,139560.337096375,0.3920440673828125,-0.3509063720703125,-0.4914093017578125,139560.311065375,-1.073277887751744,0.3838515279252629,0.3214147814327912
2017-11-24 14:35:55.440 -0800,356,C4D50155-580C-4885-BACB-A13DEF47355A,1511562954.992777,49.27920674601638,-122.9165390365183,345.4773,0.6290092,116.0363626016759,3,16,-9999,139560.367156375,0.37109375,-0.3583221435546875,-0.52288818359375,139560.341124375,-0.8931368779288219,0.8362999602604598,0.4555848371509832
2017-11-24 14:35:55.471 -0800,357,C4D50155-580C-4885-BACB-A13DEF47355A,1511562954.992777,49.27920674601638,-122.9165390365183,345.4773,0.6290092,116.0363626016759,3,16,-9999,139560.397216375,0.3089141845703125,-0.34259033203125,-0.5432281494140625,139560.371184375,-1.007984900990162,0.6834363779026745,0.6700507976317183
2017-11-24 14:35:55.500 -0800,358,C4D50155-580C-4885-BACB-A13DEF47355A,1511562954.992777,49.27920674601638,-122.9165390365183,345.4773,0.6290092,116.0363626016759,3,16,-9999,139560.427276375,0.2704315185546875,-0.2762451171875,-0.4528961181640625,139560.401244375,-1.377727001460185,0.1854023508724824,0.7832564492488066
2017-11-24 14:35:55.530 -0800,359,C4D50155-580C-4885-BACB-A13DEF47355A,1511562954.992777,49.27920674601638,-122.9165390365183,345.4773,0.6290092,116.0363626016759,3,16,-9999,139560.457335375,0.242156982421875,-0.355224609375,-0.443695068359375,139560.431304375,-1.023761467287791,0.289848066715973,0.6603014975131563
2017-11-24 14:35:55.567 -0800,360,C4D50155-580C-4885-BACB-A13DEF47355A,1511562954.992777,49.27920674601638,-122.9165390365183,345.4773,0.6290092,116.0363626016759,3,16,-9999,139560.487395375,0.2612457275390625,-0.39630126953125,-0.5968017578125,139560.461364375,-0.3476309392035312,0.6870947622921164,0.7875526607193224
2017-11-24 14:35:55.590 -0800,361,C4D50155-580C-4885-BACB-A13DEF47355A,1511562954.992777,49.27920674601638,-122.9165390365183,345.4773,0.6290092,116.0363626016759,3,16,-9999,139560.517455375,0.289215087890625,-0.4394378662109375,-0.7421112060546875,139560.491424375,-0.4797564861528694,0.533619984464158,0.7358186260156612
2017-11-24 14:35:55.620 -0800,362,C4D50155-580C-4885-BACB-A13DEF47355A,1511562954.992777,49.27920674601638,-122.9165390365183,345.4773,0.6290092,116.0363626016759,3,16,-9999,139560.547515375,0.358245849609375,-0.511810302734375,-0.9488525390625,139560.521483375,-0.4820041941128963,0.380090079201635,0.5333384883369366
2017-11-24 14:35:55.652 -0800,363,C4D50155-580C-4885-BACB-A13DEF47355A,1511562954.992777,49.27920674601638,-122.9165390365183,345.4773,0.6290092,116.0363626016759,3,16,-9999,139560.577575375,0.34063720703125,-0.510223388671875,-0.9520263671875,139560.551543375,0.01788818672595324,0.05758739646354642,0.4716074795333359
2017-11-24 14:35:55.680 -0800,364,C4D50155-580C-4885-BACB-A13DEF47355A,1511562954.992777,49.27920674601638,-122.9165390365183,345.4773,0.6290092,116.0363626016759,3,16,-9999,139560.607635375,0.342041015625,-0.566314697265625,-1.024368286132812,139560.581603375,-0.06822885554728504,-0.06823338292113817,0.3101847637481451
2017-11-24 14:35:55.711 -0800,365,C4D50155-580C-4885-BACB-A13DEF47355A,1511562954.992777,49.27920674601638,-122.9165390365183,345.4773,0.6290092,116.0363626016759,3,16,-9999,139560.637694375,0.4408111572265625,-0.577301025390625,-1.284225463867188,139560.611663375,-0.2823491377185279,-0.009057677183468497,0.08728563735956504
2017-11-24 14:35:55.740 -0800,366,C4D50155-580C-4885-BACB-A13DEF47355A,1511562954.992777,49.27920674601638,-122.9165390365183,345.4773,0.6290092,116.0363626016759,3,16,-9999,139560.667754375,0.4149017333984375,-0.55560302734375,-1.306106567382812,139560.641723375,-0.2361813760092412,-0.6826829696302912,-0.0581245560554154
2017-11-24 14:35:55.770 -0800,367,C4D50155-580C-4885-BACB-A13DEF47355A,1511562954.992777,49.27920674601638,-122.9165390365183,345.4773,0.6290092,116.0363626016759,3,16,-9999,139560.697814375,0.4063873291015625,-0.519012451171875,-1.2138671875,139560.671782375,0.3285565805280567,-1.24062374011738,-0.2830066721916684
2017-11-24 14:35:55.808 -0800,368,C4D50155-580C-4885-BACB-A13DEF47355A,1511562954.992777,49.27920674601638,-122.9165390365183,345.4773,0.6290092,116.0363626016759,3,16,-9999,139560.727904375,0.378753662109375,-0.478729248046875,-1.123367309570312,139560.701842375,1.241297253557061,-1.389858499173823,-0.4589936833462847
2017-11-24 14:35:55.830 -0800,369,C4D50155-580C-4885-BACB-A13DEF47355A,1511562954.992777,49.27920674601638,-122.9165390365183,345.4773,0.6290092,116.0363626016759,3,16,-9999,139560.757964375,0.4266815185546875,-0.4691619873046875,-1.070724487304688,139560.731902375,1.311473412493412,-1.396055142398219,-0.6693514515294635
2017-11-24 14:35:55.860 -0800,370,C4D50155-580C-4885-BACB-A13DEF47355A,1511562954.992777,49.27920674601638,-122.9165390365183,345.4773,0.6290092,116.0363626016759,3,16,-9999,139560.788024375,0.6155853271484375,-0.6787109375,-1.360565185546875,139560.761962375,0.6332304650325008,-0.2554213833045187,-1.09284306701612
2017-11-24 14:35:55.890 -0800,371,C4D50155-580C-4885-BACB-A13DEF47355A,1511562954.992777,49.27920674601638,-122.9165390365183,345.4773,0.6290092,116.0363626016759,3,16,-9999,139560.818084375,0.7998809814453125,-0.4698638916015625,-1.750961303710938,139560.792022375,1.028836120744937,0.8516325776043731,-0.5532291058865205
2017-11-24 14:35:55.920 -0800,372,C4D50155-580C-4885-BACB-A13DEF47355A,1511562954.992777,49.27920674601638,-122.9165390365183,345.4773,0.6290092,116.0363626016759,3,16,-9999,139560.848144375,0.5111846923828125,-0.3185882568359375,-1.308685302734375,139560.822082375,1.392130175583661,-0.9217331027657657,-0.1285768847968076
