loggingTime(txt),loggingSample(N),identifierForVendor(txt),locationTimestamp_since1970(s),locationLatitude(WGS84),locationLongitude(WGS84),locationAltitude(m),locationSpeed(m/s),locationCourse(°),locationVerticalAccuracy(m),locationHorizontalAccuracy(m),locationFloor(Z),accelerometerTimestamp_sinceReboot(s),accelerometerAccelerationX(G),accelerometerAccelerationY(G),accelerometerAccelerationZ(G),gyroTimestamp_sinceReboot(s),gyroRotationX(rad/s),gyroRotationY(rad/s),gyroRotationZ(rad/s)
2017-11-24 14:42:05.751 -0800,1,C4D50155-580C-4885-BACB-A13DEF47355A,1511563324.987793,49.27910716444549,-122.9162301190077,347.4198,0.07574523,110.5086836761954,3,16,-9999,139930.674126,-0.401397705078125,0.379302978515625,-0.8293304443359375,139930.642052,-0.00107751497704606,-0.04887007126739006,0.04240285087624163
2017-11-24 14:42:05.771 -0800,2,C4D50155-580C-4885-BACB-A13DEF47355A,1511563324.987793,49.27910716444549,-122.9162301190077,347.4198,0.07574523,110.5086836761954,3,16,-9999,139930.707146,-0.41387939453125,0.3883819580078125,-0.8327484130859375,139930.675103,-0.01195999013943685,-0.05089860106970341,-0.002470880859375517
2017-11-24 14:42:05.805 -0800,3,C4D50155-580C-4885-BACB-A13DEF47355A,1511563324.987793,49.27910716444549,-122.9162301190077,347.4198,0.07574523,110.5086836761954,3,16,-9999,139930.740258,-0.41485595703125,0.3993377685546875,-0.8343658447265625,139930.708184,-0.04564924424504822,0.02133112138320768,-0.006109824172859788
2017-11-24 14:42:05.837 -0800,4,C4D50155-580C-4885-BACB-A13DEF47355A,1511563324.987793,49.27910716444549,-122.9162301190077,347.4198,0.07574523,110.5086836761954,3,16,-9999,139930.773278,-0.4029541015625,0.400299072265625,-0.8297119140625,139930.741234,0.0005406217012860853,0.04034369472139236,-0.0169089423931311
2017-11-24 14:42:05.872 -0800,5,C4D50155-580C-4885-BACB-A13DEF47355A,1511563324.987793,49.27910716444549,-122.9162301190077,347.4198,0.07574523,110.5086836761954,3,16,-9999,139930.806389,-0.4017791748046875,0.4066009521484375,-0.822479248046875,139930.774315,0.0438199188922728,0.01687778340837717,0.0008506136521713087
2017-11-24 14:42:05.904 -0800,6,C4D50155-580C-4885-BACB-A13DEF47355A,1511563324.987793,49.27910716444549,-122.9162301190077,347.4198,0.07574523,110.5086836761954,3,16,-9999,139930.839409,-0.397216796875,0.406036376953125,-0.8121185302734375,139930.807366,0.06191663113157923,0.01789484462867843,0.00331457029271262
2017-11-24 14:42:05.938 -0800,7,C4D50155-580C-4885-BACB-A13DEF47355A,1511563324.987793,49.27910716444549,-122.9162301190077,347.4198,0.07574523,110.5086836761954,3,16,-9999,139930.872521,-0.39825439453125,0.4063720703125,-0.805694580078125,139930.840447,0.02550695797245192,0.02538897993616141,0.01223136625451592
2017-11-24 14:42:05.970 -0800,8,C4D50155-580C-4885-BACB-A13DEF47355A,1511563324.987793,49.27910716444549,-122.9162301190077,347.4198,0.07574523,110.5086836761954,3,16,-9999,139930.905541,-0.4030914306640625,0.4056243896484375,-0.8080596923828125,139930.873497,0.01482421989181707,-0.001102548691292805,0.005588909863640289
2017-11-24 14:42:06.005 -0800,9,C4D50155-580C-4885-BACB-A13DEF47355A,1511563324.987793,49.27910716444549,-122.9162301190077,347.4198,0.07574523,110.5086836761954,3,16,-9999,139930.938622,-0.40423583984375,0.3990478515625,-0.8106231689453125,139930.906578,-0.0126910278586636,0.01276399847253177,-0.002330798586037349
2017-11-24 14:42:06.036 -0800,10,C4D50155-580C-4885-BACB-A13DEF47355A,1511563324.987793,49.27910716444549,-122.9162301190077,347.4198,0.07574523,110.5086836761954,3,16,-9999,139930.971672,-0.407958984375,0.3989715576171875,-0.8101959228515625,139930.939598,-0.0205151288252074,0.02654026447540266,0.01989168281401985
2017-11-24 14:42:06.070 -0800,11,C4D50155-580C-4885-BACB-A13DEF47355A,1511563324.987793,49.27910716444549,-122.9162301190077,347.4198,0.07574523,110.5086836761954,3,16,-9999,139931.004753,-0.40252685546875,0.401123046875,-0.80731201171875,139930.97271,0.004711930916677196,0.0106308064393783,-0.02009408305686587
2017-11-24 14:42:06.102 -0800,12,C4D50155-580C-4885-BACB-A13DEF47355A,1511563324.987793,49.27910716444549,-122.9162301190077,347.4198,0.07574523,110.5086836761954,3,16,-9999,139931.037804,-0.4033050537109375,0.4050445556640625,-0.81390380859375,139931.00573,-0.03173689071047428,0.02236416157004941,-0.007977232729223351
2017-11-24 14:42:06.136 -0800,13,C4D50155-580C-4885-BACB-A13DEF47355A,1511563324.987793,49.27910716444549,-122.9162301190077,347.4198,0.07574523,110.5086836761954,3,16,-9999,139931.070885,-0.4017333984375,0.4102020263671875,-0.8189239501953125,139931.038842,-0.03894020882692061,0.01391688090842707,-0.02408349836980457
2017-11-24 14:42:06.168 -0800,14,C4D50155-580C-4885-BACB-A13DEF47355A,1511563324.987793,49.27910716444549,-122.9162301190077,347.4198,0.07574523,110.5086836761954,3,16,-9999,139931.103936,-0.4030609130859375,0.4096527099609375,-0.81982421875,139931.071862,-0.0349944693558592,-0.004147340765580398,-0.01235546956131362
2017-11-24 14:42:06.202 -0800,15,C4D50155-580C-4885-BACB-A13DEF47355A,1511563325.987772,49.27910684900738,-122.9162255487375,347.4485,0.0227074,109.5356276062787,3,16,-9999,139931.137017,-0.4009857177734375,0.3962554931640625,-0.8285980224609375,139931.104973,-0.02130768556561498,0.008534366029267926,0.0006902913545485385
2017-11-24 14:42:06.234 -0800,16,C4D50155-580C-4885-BACB-A13DEF47355A,1511563325.987772,49.27910684900738,-122.9162255487375,347.4485,0.0227074,109.5356276062787,3,16,-9999,139931.170067,-0.4051971435546875,0.3903350830078125,-0.8446197509765625,139931.137993,-0.01776861079300868,0.02234099206856572,-0.01303670616815589
2017-11-24 14:42:06.269 -0800,17,C4D50155-580C-4885-BACB-A13DEF47355A,1511563325.987772,49.27910684900738,-122.9162255487375,347.4485,0.0227074,109.5356276062787,3,16,-9999,139931.203148,-0.4177703857421875,0.39349365234375,-0.85955810546875,139931.171105,-0.01180179837068614,0.01813612702343961,-0.04696910688129149
2017-11-24 14:42:06.300 -0800,18,C4D50155-580C-4885-BACB-A13DEF47355A,1511563325.987772,49.27910684900738,-122.9162255487375,347.4485,0.0227074,109.5356276062787,3,16,-9999,139931.236199,-0.4186553955078125,0.3930511474609375,-0.87890625,139931.204125,0.0291594834074956,0.06474357662869834,-0.05567125205923441
2017-11-24 14:42:06.334 -0800,19,C4D50155-580C-4885-BACB-A13DEF47355A,1511563325.987772,49.27910684900738,-122.9162255487375,347.4485,0.0227074,109.5356276062787,3,16,-9999,139931.26928,-0.4276123046875,0.39654541015625,-0.90093994140625,139931.237236,0.09776650782957189,0.1027974854448406,-0.06175604251784746
2017-11-24 14:42:06.367 -0800,20,C4D50155-580C-4885-BACB-A13DEF47355A,1511563325.987772,49.27910684900738,-122.9162255487375,347.4485,0.0227074,109.5356276062787,3,16,-9999,139931.30233,-0.41650390625,0.3718719482421875,-0.958587646484375,139931.270256,0.2094586849991681,0.142909485151396,-0.08830988911480953
2017-11-24 14:42:06.401 -0800,21,C4D50155-580C-4885-BACB-A13DEF47355A,1511563325.987772,49.27910684900738,-122.9162255487375,347.4485,0.0227074,109.5356276062787,3,16,-9999,139931.335411,-0.4222259521484375,0.3260650634765625,-1.078948974609375,139931.303337,0.2845845951375404,0.102476308217377,-0.1221149907278393
2017-11-24 14:42:06.433 -0800,22,C4D50155-580C-4885-BACB-A13DEF47355A,1511563325.987772,49.27910684900738,-122.9162255487375,347.4485,0.0227074,109.5356276062787,3,16,-9999,139931.368462,-0.45245361328125,0.2542724609375,-1.138702392578125,139931.336388,0.5025861682814646,-0.0603325829152001,-0.1291137780725676
2017-11-24 14:42:06.467 -0800,23,C4D50155-580C-4885-BACB-A13DEF47355A,1511563325.987772,49.27910684900738,-122.9162255487375,347.4485,0.0227074,109.5356276062787,3,16,-9999,139931.401543,-0.46209716796875,0.184356689453125,-1.0994873046875,139931.369469,0.7125652349576342,0.05283605076273606,-0.1972789840697997
2017-11-24 14:42:06.499 -0800,24,C4D50155-580C-4885-BACB-A13DEF47355A,1511563325.987772,49.27910684900738,-122.9162255487375,347.4485,0.0227074,109.5356276062787,3,16,-9999,139931.434593,-0.4101409912109375,0.1168212890625,-1.095916748046875,139931.402519,0.7899351246305073,0.628938514619729,-0.2880485687674064
2017-11-24 14:42:06.533 -0800,25,C4D50155-580C-4885-BACB-A13DEF47355A,1511563325.987772,49.27910684900738,-122.9162255487375,347.4485,0.0227074,109.5356276062787,3,16,-9999,139931.467675,-0.4097900390625,0.1544342041015625,-1.1776123046875,139931.435601,0.7837696403908648,0.8370989085874836,-0.4089012211385482
2017-11-24 14:42:06.565 -0800,26,C4D50155-580C-4885-BACB-A13DEF47355A,1511563325.987772,49.27910684900738,-122.9162255487375,347.4485,0.0227074,109.5356276062787,3,16,-9999,139931.5007095417,-0.4483489990234375,0.1650238037109375,-1.26226806640625,139931.468651,1.118942045698896,0.450234546521014,-0.4674508177039403
2017-11-24 14:42:06.599 -0800,27,C4D50155-580C-4885-BACB-A13DEF47355A,1511563325.987772,49.27910684900738,-122.9162255487375,347.4485,0.0227074,109.5356276062787,3,16,-9999,139931.5337905417,-0.4407501220703125,0.126220703125,-1.27618408203125,139931.5017165417,1.618430425000381,0.4017543620372116,-0.7093260321237709
2017-11-24 14:42:06.631 -0800,28,C4D50155-580C-4885-BACB-A13DEF47355A,1511563325.987772,49.27910684900738,-122.9162255487375,347.4485,0.0227074,109.5356276062787,3,16,-9999,139931.5668415417,-0.4048919677734375,0.125732421875,-1.343963623046875,139931.5347675417,1.295014011692286,1.053992606717935,-0.7445719038865336
2017-11-24 14:42:06.668 -0800,29,C4D50155-580C-4885-BACB-A13DEF47355A,1511563325.987772,49.27910684900738,-122.9162255487375,347.4485,0.0227074,109.5356276062787,3,16,-9999,139931.5999225417,-0.3999481201171875,0.1533050537109375,-1.331832885742188,139931.5678485417,0.9358201596678488,1.15689075965198,-0.9019817685411931
2017-11-24 14:42:06.697 -0800,30,C4D50155-580C-4885-BACB-A13DEF47355A,1511563325.987772,49.27910684900738,-122.9162255487375,347.4485,0.0227074,109.5356276062787,3,16,-9999,139931.6329425417,-0.368194580078125,0.1125030517578125,-1.32330322265625,139931.6008985417,0.9853467001439434,1.170347446324042,-0.7553321399548897
2017-11-24 14:42:06.731 -0800,31,C4D50155-580C-4885-BACB-A13DEF47355A,1511563325.987772,49.27910684900738,-122.9162255487375,347.4485,0.0227074,109.5356276062787,3,16,-9999,139931.6660535417,-0.3430633544921875,0.0851593017578125,-1.226486206054688,139931.6339795417,0.9450533391671536,1.009079726514294,-0.7022265772898376
2017-11-24 14:42:06.763 -0800,32,C4D50155-580C-4885-BACB-A13DEF47355A,1511563325.987772,49.27910684900738,-122.9162255487375,347.4485,0.0227074,109.5356276062787,3,16,-9999,139931.6990735417,-0.29400634765625,0.0635986328125,-1.07220458984375,139931.6670305417,1.140507258941922,0.9385789282410619,-0.6764503737311788
2017-11-24 14:42:06.798 -0800,33,C4D50155-580C-4885-BACB-A13DEF47355A,1511563325.987772,49.27910684900738,-122.9162255487375,347.4485,0.0227074,109.5356276062787,3,16,-9999,139931.7321855417,-0.2050933837890625,-0.0110321044921875,-0.918792724609375,139931.7001115417,1.551596799548188,0.9565249055626699,-0.5209803556145329
2017-11-24 14:42:06.830 -0800,34,C4D50155-580C-4885-BACB-A13DEF47355A,1511563325.987772,49.27910684900738,-122.9162255487375,347.4485,0.0227074,109.5356276062787,3,16,-9999,139931.7652055417,-0.1689300537109375,-0.0260772705078125,-0.8434295654296875,139931.7331615417,1.297436156703713,0.8434193888025686,-0.430234206734519
2017-11-24 14:42:06.864 -0800,35,C4D50155-580C-4885-BACB-A13DEF47355A,1511563325.987772,49.27910684900738,-122.9162255487375,347.4485,0.0227074,109.5356276062787,3,16,-9999,139931.7983165417,-0.1432037353515625,-0.0103912353515625,-0.8475494384765625,139931.7662435417,0.5795496595719916,0.587394799511147,-0.5664245364556451
2017-11-24 14:42:06.896 -0800,36,C4D50155-580C-4885-BACB-A13DEF47355A,1511563325.987772,49.27910684900738,-122.9162255487375,347.4485,0.0227074,109.5356276062787,3,16,-9999,139931.8313375417,-0.1633148193359375,0.015350341796875,-0.78118896484375,139931.7992935417,0.3967580055161139,0.1919249650143044,-0.4920568282796184
2017-11-24 14:42:06.930 -0800,37,C4D50155-580C-4885-BACB-A13DEF47355A,1511563325.987772,49.27910684900738,-122.9162255487375,347.4485,0.0227074,109.5356276062787,3,16,-9999,139931.8644485417,-0.1892852783203125,-0.0081329345703125,-0.7187347412109375,139931.8323745417,0.4318076023065378,-0.1362230866025341,-0.3528800297120774
2017-11-24 14:42:06.962 -0800,38,C4D50155-580C-4885-BACB-A13DEF47355A,1511563325.987772,49.27910684900738,-122.9162255487375,347.4485,0.0227074,109.5356276062787,3,16,-9999,139931.8974685417,-0.18914794921875,0.008270263671875,-0.6828155517578125,139931.8654255417,0.2166609378511784,-0.1982885884390488,-0.3899752005357911
2017-11-24 14:42:06.995 -0800,39,C4D50155-580C-4885-BACB-A13DEF47355A,1511563325.987772,49.27910684900738,-122.9162255487375,347.4485,0.0227074,109.5356276062787,3,16,-9999,139931.9305805417,-0.132781982421875,0.0083465576171875,-0.636871337890625,139931.8985065417,-0.1022278352876726,0.09116080306173935,-0.4834425674176481
2017-11-24 14:42:07.028 -0800,40,C4D50155-580C-4885-BACB-A13DEF47355A,1511563325.987772,49.27910684900738,-122.9162255487375,347.4485,0.0227074,109.5356276062787,3,16,-9999,139931.9636005417,-0.1307373046875,-0.0435028076171875,-0.59918212890625,139931.9315565417,0.01948741496054582,0.3358027755380533,-0.3646794312377825
2017-11-24 14:42:07.066 -0800,41,C4D50155-580C-4885-BACB-A13DEF47355A,1511563325.987772,49.27910684900738,-122.9162255487375,347.4485,0.0227074,109.5356276062787,3,16,-9999,139931.9966815417,-0.153533935546875,-0.0821990966796875,-0.6483154296875,139931.9646375417,0.05415085339290818,0.06285965647357629,-0.245583399921657
2017-11-24 14:42:07.095 -0800,42,C4D50155-580C-4885-BACB-A13DEF47355A,1511563325.987772,49.27910684900738,-122.9162255487375,347.4485,0.0227074,109.5356276062787,3,16,-9999,139932.0297315417,-0.1759796142578125,-0.131011962890625,-0.7506256103515625,139931.9976575417,-0.03956258957367213,-0.3250001952083649,-0.4173503660129336
2017-11-24 14:42:07.128 -0800,43,C4D50155-580C-4885-BACB-A13DEF47355A,1511563325.987772,49.27910684900738,-122.9162255487375,347.4485,0.0227074,109.5356276062787,3,16,-9999,139932.0628125417,-0.2289276123046875,-0.1383209228515625,-0.768524169921875,139932.0307695417,-0.4043940873096981,-0.2298798042378957,-0.3398459867050116
2017-11-24 14:42:07.160 -0800,44,C4D50155-580C-4885-BACB-A13DEF47355A,1511563325.987772,49.27910684900738,-122.9162255487375,347.4485,0.0227074,109.5356276062787,3,16,-9999,139932.0958635417,-0.154266357421875,-0.191986083984375,-0.686431884765625,139932.0637895417,-0.273715968412818,-0.17171237128893,-0.4053554884632167
2017-11-24 14:42:07.194 -0800,45,C4D50155-580C-4885-BACB-A13DEF47355A,1511563325.987772,49.27910684900738,-122.9162255487375,347.4485,0.0227074,109.5356276062787,3,16,-9999,139932.1289445417,-0.0198974609375,-0.291412353515625,-0.6924285888671875,139932.0969005417,0.009064867718411711,0.06353636570656543,-0.6186459296387908
2017-11-24 14:42:07.228 -0800,46,C4D50155-580C-4885-BACB-A13DEF47355A,1511563326.987752,49.27910720459383,-122.916221255429,347.4742,0.03657667,103.2271146246932,3,16,-9999,139932.1619945417,-0.009613037109375,-0.3273773193359375,-0.794769287109375,139932.1299205417,-0.4560679345727236,0.1239656213693354,-0.6058265374155855
2017-11-24 14:42:07.260 -0800,47,C4D50155-580C-4885-BACB-A13DEF47355A,1511563326.987752,49.27910720459383,-122.916221255429,347.4742,0.03657667,103.2271146246932,3,16,-9999,139932.1950765417,-0.076507568359375,-0.33624267578125,-0.8577117919921875,139932.1630325417,-0.5412435494006188,-0.2208572807808163,-0.4891188289650429
2017-11-24 14:42:07.292 -0800,48,C4D50155-580C-4885-BACB-A13DEF47355A,1511563326.987752,49.27910720459383,-122.916221255429,347.4742,0.03657667,103.2271146246932,3,16,-9999,139932.2281265417,-0.09521484375,-0.385345458984375,-0.8730621337890625,139932.1960525417,0.1099187781997125,-0.5012066508368036,-0.58198485407276
2017-11-24 14:42:07.326 -0800,49,C4D50155-580C-4885-BACB-A13DEF47355A,1511563326.987752,49.27910720459383,-122.916221255429,347.4742,0.03657667,103.2271146246932,3,16,-9999,139932.2612075417,-0.06103515625,-0.40032958984375,-0.89569091796875,139932.2291645417,0.193321260373833,-0.3059764365936019,-0.7033403112577088
2017-11-24 14:42:07.358 -0800,50,C4D50155-580C-4885-BACB-A13DEF47355A,1511563326.987752,49.27910720459383,-122.916221255429,347.4742,0.03657667,103.2271146246932,3,16,-9999,139932.2942585417,-0.0307769775390625,-0.3488616943359375,-0.9344635009765625,139932.2621845417,-0.1364012520794604,-0.03666693452042897,-0.7938659503994643
2017-11-24 14:42:07.393 -0800,51,C4D50155-580C-4885-BACB-A13DEF47355A,1511563326.987752,49.27910720459383,-122.916221255429,347.4742,0.03657667,103.2271146246932,3,16,-9999,139932.3273395417,-0.0185394287109375,-0.3320770263671875,-0.931488037109375,139932.2952655417,-0.001254348873427321,-0.2089785170546268,-0.712020085882495
2017-11-24 14:42:07.425 -0800,52,C4D50155-580C-4885-BACB-A13DEF47355A,1511563326.987752,49.27910720459383,-122.916221255429,347.4742,0.03657667,103.2271146246932,3,16,-9999,139932.3603895417,0.03546142578125,-0.36602783203125,-0.8903045654296875,139932.3283155417,0.2365568817229424,-0.466601003000096,-0.4997970396718247
2017-11-24 14:42:07.459 -0800,53,C4D50155-580C-4885-BACB-A13DEF47355A,1511563326.987752,49.27910720459383,-122.916221255429,347.4742,0.03657667,103.2271146246932,3,16,-9999,139932.3934705417,0.021697998046875,-0.375091552734375,-0.941253662109375,139932.3613965417,0.1352539622818543,-0.6258841351655172,-0.2702069873605296
2017-11-24 14:42:07.491 -0800,54,C4D50155-580C-4885-BACB-A13DEF47355A,1511563326.987752,49.27910720459383,-122.916221255429,347.4742,0.03657667,103.2271146246932,3,16,-9999,139932.4265215417,-0.014312744140625,-0.339630126953125,-1.02880859375,139932.3944475417,-0.1170208961947358,-0.3817734633266741,0.0426473290643109
2017-11-24 14:42:07.525 -0800,55,C4D50155-580C-4885-BACB-A13DEF47355A,1511563326.987752,49.27910720459383,-122.916221255429,347.4742,0.03657667,103.2271146246932,3,16,-9999,139932.4596025417,-0.0731201171875,-0.3857879638671875,-1.084625244140625,139932.4275285417,-0.02161315014264707,-0.2021658846700951,0.4011221275944268
2017-11-24 14:42:07.557 -0800,56,C4D50155-580C-4885-BACB-A13DEF47355A,1511563326.987752,49.27910720459383,-122.916221255429,347.4742,0.03657667,103.2271146246932,3,16,-9999,139932.4926525417,-0.1057586669921875,-0.33837890625,-1.103164672851562,139932.4605785417,0.123145101437482,-0.1976398423975055,0.6973391440573242
2017-11-24 14:42:07.591 -0800,57,C4D50155-580C-4885-BACB-A13DEF47355A,1511563326.987752,49.27910720459383,-122.916221255429,347.4742,0.03657667,103.2271146246932,3,16,-9999,139932.5257141667,-0.1028594970703125,-0.3047943115234375,-1.172821044921875,139932.4936605417,-0.009015865554354253,0.04659546538035338,0.7571697211070444
2017-11-24 14:42:07.628 -0800,58,C4D50155-580C-4885-BACB-A13DEF47355A,1511563326.987752,49.27910720459383,-122.916221255429,347.4742,0.03657667,103.2271146246932,3,16,-9999,139932.5587651667,-0.0905914306640625,-0.195648193359375,-1.263824462890625,139932.5266911667,-0.2666178451594298,0.2848682217936338,0.7359672304044875
2017-11-24 14:42:07.657 -0800,59,C4D50155-580C-4885-BACB-A13DEF47355A,1511563326.987752,49.27910720459383,-122.916221255429,347.4742,0.03657667,103.2271146246932,3,16,-9999,139932.5918461667,-0.1310882568359375,-0.050262451171875,-1.173446655273438,139932.5597721667,-0.2443596774007655,0.130135100350613,0.5903035040537316
2017-11-24 14:42:07.689 -0800,60,C4D50155-580C-4885-BACB-A13DEF47355A,1511563326.987752,49.27910720459383,-122.916221255429,347.4742,0.03657667,103.2271146246932,3,16,-9999,139932.6248661667,-0.138702392578125,-0.058837890625,-0.989044189453125,139932.5928231667,0.6225360090430696,0.1867549703901336,0.4692686914640283
2017-11-24 14:42:07.723 -0800,61,C4D50155-580C-4885-BACB-A13DEF47355A,1511563326.987752,49.27910720459383,-122.916221255429,347.4742,0.03657667,103.2271146246932,3,16,-9999,139932.6579781667,-0.0471343994140625,-0.14794921875,-0.8773193359375,139932.6259041667,1.228794511187466,0.6983143936485112,0.8762726766420041
2017-11-24 14:42:07.756 -0800,62,C4D50155-580C-4885-BACB-A13DEF47355A,1511563326.987752,49.27910720459383,-122.916221255429,347.4742,0.03657667,103.2271146246932,3,16,-9999,139932.6909981667,-0.0302276611328125,-0.20855712890625,-0.8818511962890625,139932.6589541667,0.9982241492789126,0.7176513400074676,1.05285570324858
2017-11-24 14:42:07.789 -0800,63,C4D50155-580C-4885-BACB-A13DEF47355A,1511563326.987752,49.27910720459383,-122.916221255429,347.4742,0.03657667,103.2271146246932,3,16,-9999,139932.7241091667,-0.0843963623046875,-0.1820220947265625,-0.85882568359375,139932.6920351667,0.5527145831639172,0.08887261505314327,0.7431929190740906
2017-11-24 14:42:07.821 -0800,64,C4D50155-580C-4885-BACB-A13DEF47355A,1511563326.987752,49.27910720459383,-122.916221255429,347.4742,0.03657667,103.2271146246932,3,16,-9999,139932.7571291667,-0.105621337890625,-0.1958160400390625,-0.8380126953125,139932.7250861667,0.4879816591795791,-0.1631995768644917,0.5446377482099248
2017-11-24 14:42:07.856 -0800,65,C4D50155-580C-4885-BACB-A13DEF47355A,1511563326.987752,49.27910720459383,-122.916221255429,347.4742,0.03657667,103.2271146246932,3,16,-9999,139932.7902411667,-0.0994720458984375,-0.196502685546875,-0.857025146484375,139932.7581671667,0.1810062708610886,0.164417973063203,0.4525461703472028
2017-11-24 14:42:07.888 -0800,66,C4D50155-580C-4885-BACB-A13DEF47355A,1511563326.987752,49.27910720459383,-122.916221255429,347.4742,0.03657667,103.2271146246932,3,16,-9999,139932.8232611667,-0.1119384765625,-0.1891021728515625,-0.84552001953125,139932.7912171667,-0.1753811420066232,0.3287912050200927,0.3325595779625548
2017-11-24 14:42:07.922 -0800,67,C4D50155-580C-4885-BACB-A13DEF47355A,1511563326.987752,49.27910720459383,-122.916221255429,347.4742,0.03657667,103.2271146246932,3,16,-9999,139932.8563721667,-0.109375,-0.2078704833984375,-0.851837158203125,139932.8242981667,0.05680842184469825,0.3283286139387459,0.2985632613832573
2017-11-24 14:42:07.954 -0800,68,C4D50155-580C-4885-BACB-A13DEF47355A,1511563326.987752,49.27910720459383,-122.916221255429,347.4742,0.03657667,103.2271146246932,3,16,-9999,139932.8893921667,-0.1147613525390625,-0.2411956787109375,-0.8103485107421875,139932.8573491667,0.189256477602045,0.329106789609267,0.2914414359961674
2017-11-24 14:42:07.987 -0800,69,C4D50155-580C-4885-BACB-A13DEF47355A,1511563326.987752,49.27910720459383,-122.916221255429,347.4742,0.03657667,103.2271146246932,3,16,-9999,139932.9225041667,-0.116058349609375,-0.24615478515625,-0.805908203125,139932.8904301667,0.2947187220336189,0.3586407134660278,0.2530482404571491
2017-11-24 14:42:08.019 -0800,70,C4D50155-580C-4885-BACB-A13DEF47355A,1511563326.987752,49.27910720459383,-122.916221255429,347.4742,0.03657667,103.2271146246932,3,16,-9999,139932.9555241667,-0.125823974609375,-0.2597808837890625,-0.821807861328125,139932.9234811667,0.3037843887003576,0.3704148149613771,0.1734804439366336
2017-11-24 14:42:08.054 -0800,71,C4D50155-580C-4885-BACB-A13DEF47355A,1511563326.987752,49.27910720459383,-122.916221255429,347.4742,0.03657667,103.2271146246932,3,16,-9999,139932.9886051667,-0.1460113525390625,-0.2664031982421875,-0.90960693359375,139932.9565621667,0.236980590652374,0.2930894000787084,0.1858849156620047
2017-11-24 14:42:08.086 -0800,72,C4D50155-580C-4885-BACB-A13DEF47355A,1511563326.987752,49.27910720459383,-122.916221255429,347.4742,0.03657667,103.2271146246932,3,16,-9999,139933.0216561667,-0.1787261962890625,-0.2907562255859375,-1.011856079101562,139932.9895821667,-0.08819350897517306,0.08286372468559748,0.05919035312366511
2017-11-24 14:42:08.121 -0800,73,C4D50155-580C-4885-BACB-A13DEF47355A,1511563326.987752,49.27910720459383,-122.916221255429,347.4742,0.03657667,103.2271146246932,3,16,-9999,139933.0547371667,-0.239349365234375,-0.2841644287109375,-1.147171020507812,139933.0226931667,-0.4419630344913369,-0.003024019417784975,-0.154941114324156
2017-11-24 14:42:08.152 -0800,74,C4D50155-580C-4885-BACB-A13DEF47355A,1511563326.987752,49.27910720459383,-122.916221255429,347.4742,0.03657667,103.2271146246932,3,16,-9999,139933.0877871667,-0.2636260986328125,-0.2803955078125,-1.228607177734375,139933.0557131667,-0.7049203647324528,0.3360128989480605,-0.1472845261901782
2017-11-24 14:42:08.187 -0800,75,C4D50155-580C-4885-BACB-A13DEF47355A,1511563327.987731,49.27910803378407,-122.9162205498071,347.4951,0.07657836,99.82393871978847,3,16,-9999,139933.1208681667,-0.16192626953125,-0.2884063720703125,-1.120803833007812,139933.0888251667,-0.3115909128037069,0.7525965408831603,-0.4548743057721501
2017-11-24 14:42:08.218 -0800,76,C4D50155-580C-4885-BACB-A13DEF47355A,1511563327.987731,49.27910803378407,-122.9162205498071,347.4951,0.07657836,99.82393871978847,3,16,-9999,139933.1539191667,-0.0560760498046875,-0.259429931640625,-1.011383056640625,139933.1218451667,-0.1527298916710632,0.5189952353379879,-0.5684251030665126
2017-11-24 14:42:08.252 -0800,77,C4D50155-580C-4885-BACB-A13DEF47355A,1511563327.987731,49.27910803378407,-122.9162205498071,347.4951,0.07657836,99.82393871978847,3,16,-9999,139933.1870001667,-0.0126190185546875,-0.23876953125,-0.9905853271484375,139933.1549561667,-0.06358829734782197,0.2576879997082851,-0.5046605044545274
2017-11-24 14:42:08.284 -0800,78,C4D50155-580C-4885-BACB-A13DEF47355A,1511563327.987731,49.27910803378407,-122.9162205498071,347.4951,0.07657836,99.82393871978847,3,16,-9999,139933.2200501667,-0.0574951171875,-0.2558441162109375,-1.026748657226562,139933.1879761667,0.1140631894880938,-0.04658428010377504,-0.2287873755587452
2017-11-24 14:42:08.318 -0800,79,C4D50155-580C-4885-BACB-A13DEF47355A,1511563327.987731,49.27910803378407,-122.9162205498071,347.4951,0.07657836,99.82393871978847,3,16,-9999,139933.2531311667,-0.097015380859375,-0.2454681396484375,-1.086929321289062,139933.2210881667,0.0624364801763627,-0.08167249273000504,-0.1064582666792635
2017-11-24 14:42:08.350 -0800,80,C4D50155-580C-4885-BACB-A13DEF47355A,1511563327.987731,49.27910803378407,-122.9162205498071,347.4951,0.07657836,99.82393871978847,3,16,-9999,139933.2861821667,-0.084259033203125,-0.1959381103515625,-0.99591064453125,139933.2541081667,-0.07848415627296218,-0.1403304799517633,-0.3952903374393713
2017-11-24 14:42:08.384 -0800,81,C4D50155-580C-4885-BACB-A13DEF47355A,1511563327.987731,49.27910803378407,-122.9162205498071,347.4951,0.07657836,99.82393871978847,3,16,-9999,139933.3192631667,-0.0482330322265625,-0.215087890625,-0.8052825927734375,139933.2871891667,0.474130025717859,0.04403643388889623,-0.3399642310574111
2017-11-24 14:42:08.416 -0800,82,C4D50155-580C-4885-BACB-A13DEF47355A,1511563327.987731,49.27910803378407,-122.9162205498071,347.4951,0.07657836,99.82393871978847,3,16,-9999,139933.3523141667,-0.018218994140625,-0.2736663818359375,-0.680023193359375,139933.3202401667,0.8673913007226989,0.1002272686768051,-0.1900490343424526
2017-11-24 14:42:08.451 -0800,83,C4D50155-580C-4885-BACB-A13DEF47355A,1511563327.987731,49.27910803378407,-122.9162205498071,347.4951,0.07657836,99.82393871978847,3,16,-9999,139933.3853951667,-0.0092010498046875,-0.298065185546875,-0.6929779052734375,139933.3533211667,0.671654020607946,-0.1124655591501552,-0.279261202434581
2017-11-24 14:42:08.483 -0800,84,C4D50155-580C-4885-BACB-A13DEF47355A,1511563327.987731,49.27910803378407,-122.9162205498071,347.4951,0.07657836,99.82393871978847,3,16,-9999,139933.4184451667,-0.02813720703125,-0.3090057373046875,-0.761962890625,139933.3863711667,0.4240937562091233,-0.5255394210846396,-0.3922484748422828
2017-11-24 14:42:08.516 -0800,85,C4D50155-580C-4885-BACB-A13DEF47355A,1511563327.987731,49.27910803378407,-122.9162205498071,347.4951,0.07657836,99.82393871978847,3,16,-9999,139933.4515261667,-0.0667266845703125,-0.32904052734375,-0.863006591796875,139933.4194521667,0.2565526941355843,-0.7787309396084349,-0.4055275286696358
2017-11-24 14:42:08.548 -0800,86,C4D50155-580C-4885-BACB-A13DEF47355A,1511563327.987731,49.27910803378407,-122.9162205498071,347.4951,0.07657836,99.82393871978847,3,16,-9999,139933.4845771667,-0.0924224853515625,-0.3570098876953125,-0.9458160400390625,139933.4525031667,0.0111349428337303,-0.610617830532747,-0.3586090218490559
2017-11-24 14:42:08.589 -0800,87,C4D50155-580C-4885-BACB-A13DEF47355A,1511563327.987731,49.27910803378407,-122.9162205498071,347.4951,0.07657836,99.82393871978847,3,16,-9999,139933.517633625,-0.0886688232421875,-0.405731201171875,-1.000411987304688,139933.4855841667,-0.01185239843139765,-0.2596510157477825,-0.1763257652452743
2017-11-24 14:42:08.615 -0800,88,C4D50155-580C-4885-BACB-A13DEF47355A,1511563327.987731,49.27910803378407,-122.9162205498071,347.4951,0.07657836,99.82393871978847,3,16,-9999,139933.550683625,-0.085693359375,-0.4749603271484375,-1.029937744140625,139933.518609625,0.2836498255949226,-0.2076242996403215,0.06217149564789982
2017-11-24 14:42:08.649 -0800,89,C4D50155-580C-4885-BACB-A13DEF47355A,1511563327.987731,49.27910803378407,-122.9162205498071,347.4951,0.07657836,99.82393871978847,3,16,-9999,139933.583764625,-0.1416015625,-0.4985504150390625,-1.072219848632812,139933.551690625,0.4089664685852551,-0.5910707607637834,0.1528979371358472
2017-11-24 14:42:08.681 -0800,90,C4D50155-580C-4885-BACB-A13DEF47355A,1511563327.987731,49.27910803378407,-122.9162205498071,347.4951,0.07657836,99.82393871978847,3,16,-9999,139933.616784625,-0.1600494384765625,-0.4799652099609375,-1.090988159179688,139933.584741625,0.1230383086777698,-0.7144355729911969,0.06223434624962568
2017-11-24 14:42:08.715 -0800,91,C4D50155-580C-4885-BACB-A13DEF47355A,1511563327.987731,49.27910803378407,-122.9162205498071,347.4951,0.07657836,99.82393871978847,3,16,-9999,139933.649896625,-0.0806884765625,-0.4181976318359375,-1.08697509765625,139933.617822625,-0.3055402108070469,0.1946453840678204,0.128825624042621
2017-11-24 14:42:08.748 -0800,92,C4D50155-580C-4885-BACB-A13DEF47355A,1511563327.987731,49.27910803378407,-122.9162205498071,347.4951,0.07657836,99.82393871978847,3,16,-9999,139933.682916625,-0.0212249755859375,-0.34796142578125,-1.012069702148438,139933.650873625,-0.209185710987435,0.5578904367424862,0.4335216127841128
2017-11-24 14:42:08.781 -0800,93,C4D50155-580C-4885-BACB-A13DEF47355A,1511563327.987731,49.27910803378407,-122.9162205498071,347.4951,0.07657836,99.82393871978847,3,16,-9999,139933.716028625,-0.02789306640625,-0.3401336669921875,-0.927398681640625,139933.683954625,0.4307021241380459,0.1499074735477973,0.5581602149609112
2017-11-24 14:42:08.813 -0800,94,C4D50155-580C-4885-BACB-A13DEF47355A,1511563327.987731,49.27910803378407,-122.9162205498071,347.4951,0.07657836,99.82393871978847,3,16,-9999,139933.749048625,-0.0222625732421875,-0.37493896484375,-0.879364013671875,139933.717004625,0.576069174343367,-0.05631547072692458,0.5986360024723715
2017-11-24 14:42:08.847 -0800,95,C4D50155-580C-4885-BACB-A13DEF47355A,1511563327.987731,49.27910803378407,-122.9162205498071,347.4951,0.07657836,99.82393871978847,3,16,-9999,139933.782159625,-0.0498199462890625,-0.3522796630859375,-0.924713134765625,139933.750085625,0.1877121104859081,0.1483479264134469,0.543030264175953
2017-11-24 14:42:08.879 -0800,96,C4D50155-580C-4885-BACB-A13DEF47355A,1511563327.987731,49.27910803378407,-122.9162205498071,347.4951,0.07657836,99.82393871978847,3,16,-9999,139933.815179625,-0.0882568359375,-0.2489776611328125,-0.9527435302734375,139933.783136625,-0.3779800566699652,-0.0261248113453503,0.2832910977960889
2017-11-24 14:42:08.914 -0800,97,C4D50155-580C-4885-BACB-A13DEF47355A,1511563327.987731,49.27910803378407,-122.9162205498071,347.4951,0.07657836,99.82393871978847,3,16,-9999,139933.848291625,-0.1021575927734375,-0.213104248046875,-0.8712921142578125,139933.816217625,-0.1274240023609123,-0.01689376237491765,0.1294802290385625
2017-11-24 14:42:08.946 -0800,98,C4D50155-580C-4885-BACB-A13DEF47355A,1511563327.987731,49.27910803378407,-122.9162205498071,347.4951,0.07657836,99.82393871978847,3,16,-9999,139933.881311625,-0.0745697021484375,-0.2607421875,-0.7615966796875,139933.849267625,0.2594209186295997,0.4327807213688527,0.3887048726958233
2017-11-24 14:42:08.979 -0800,99,C4D50155-580C-4885-BACB-A13DEF47355A,1511563327.987731,49.27910803378407,-122.9162205498071,347.4951,0.07657836,99.82393871978847,3,16,-9999,139933.914422625,-0.0366668701171875,-0.29315185546875,-0.709716796875,139933.882348625,0.2332708072538936,0.6586961440080564,0.4791655307069808
2017-11-24 14:42:09.011 -0800,100,C4D50155-580C-4885-BACB-A13DEF47355A,1511563327.987731,49.27910803378407,-122.9162205498071,347.4951,0.07657836,99.82393871978847,3,16,-9999,139933.947442625,-0.0374755859375,-0.298583984375,-0.709686279296875,139933.915399625,0.1999714399318698,0.3808834348903696,0.4140688189177379
2017-11-24 14:42:09.046 -0800,101,C4D50155-580C-4885-BACB-A13DEF47355A,1511563327.987731,49.27910803378407,-122.9162205498071,347.4951,0.07657836,99.82393871978847,3,16,-9999,139933.980523625,-0.0612030029296875,-0.3213348388671875,-0.7584075927734375,139933.948480625,0.2416885268274161,0.08048765236102878,0.4364489594543279
2017-11-24 14:42:09.078 -0800,102,C4D50155-580C-4885-BACB-A13DEF47355A,1511563327.987731,49.27910803378407,-122.9162205498071,347.4951,0.07657836,99.82393871978847,3,16,-9999,139934.013574625,-0.0983428955078125,-0.3376312255859375,-0.863433837890625,139933.981500625,0.08518972958167269,0.06601470341699317,0.4143782782364052
2017-11-24 14:42:09.112 -0800,103,C4D50155-580C-4885-BACB-A13DEF47355A,1511563327.987731,49.27910803378407,-122.9162205498071,347.4951,0.07657836,99.82393871978847,3,16,-9999,139934.046655625,-0.1560516357421875,-0.345489501953125,-0.97528076171875,139934.014612625,-0.05177291685557642,-0.008927448606163622,0.3584902448644383
2017-11-24 14:42:09.151 -0800,104,C4D50155-580C-4885-BACB-A13DEF47355A,1511563327.987731,49.27910803378407,-122.9162205498071,347.4951,0.07657836,99.82393871978847,3,16,-9999,139934.079706625,-0.225982666015625,-0.355865478515625,-1.04876708984375,139934.047632625,-0.1064382929710879,-0.1762248314399603,0.214565030073286
2017-11-24 14:42:09.178 -0800,105,C4D50155-580C-4885-BACB-A13DEF47355A,1511563327.987731,49.27910803378407,-122.9162205498071,347.4951,0.07657836,99.82393871978847,3,16,-9999,139934.112787625,-0.24420166015625,-0.397979736328125,-1.06207275390625,139934.080743625,-0.2836903056434917,0.07912145072181813,0.0151544518669869
2017-11-24 14:42:09.210 -0800,106,C4D50155-580C-4885-BACB-A13DEF47355A,1511563328.987711,49.27910824861578,-122.9162229875209,347.4966,0.07657836,87.60667689854911,3,16,-9999,139934.145837625,-0.211090087890625,-0.425048828125,-1.077590942382812,139934.113763625,-0.5797142429273585,0.4490744735501755,-0.02452025678857756
2017-11-24 14:42:09.244 -0800,107,C4D50155-580C-4885-BACB-A13DEF47355A,1511563328.987711,49.27910824861578,-122.9162229875209,347.4966,0.07657836,87.60667689854911,3,16,-9999,139934.178918625,-0.2012176513671875,-0.37774658203125,-1.1243896484375,139934.146875625,-0.833583802264688,0.4075627163746744,-0.2611591638730944
2017-11-24 14:42:09.276 -0800,108,C4D50155-580C-4885-BACB-A13DEF47355A,1511563328.987711,49.27910824861578,-122.9162229875209,347.4966,0.07657836,87.60667689854911,3,16,-9999,139934.211969625,-0.2380828857421875,-0.290069580078125,-1.130355834960938,139934.179895625,-0.7836553907801005,-0.1556415256908469,-0.4604728030157146
2017-11-24 14:42:09.310 -0800,109,C4D50155-580C-4885-BACB-A13DEF47355A,1511563328.987711,49.27910824861578,-122.9162229875209,347.4966,0.07657836,87.60667689854911,3,16,-9999,139934.245050625,-0.2539520263671875,-0.2628326416015625,-1.05133056640625,139934.213006625,-0.06367298587048649,-0.4044548073825519,-0.461591863305766
2017-11-24 14:42:09.342 -0800,110,C4D50155-580C-4885-BACB-A13DEF47355A,1511563328.987711,49.27910824861578,-122.9162229875209,347.4966,0.07657836,87.60667689854911,3,16,-9999,139934.278100625,-0.2529449462890625,-0.271453857421875,-0.9654541015625,139934.246026625,0.3582649414362176,-0.3440103717015685,-0.3589946475748994
2017-11-24 14:42:09.376 -0800,111,C4D50155-580C-4885-BACB-A13DEF47355A,1511563328.987711,49.27910824861578,-122.9162229875209,347.4966,0.07657836,87.60667689854911,3,16,-9999,139934.311181625,-0.223480224609375,-0.2685546875,-0.9243011474609375,139934.279107625,0.1056100498720733,-0.3539524846830523,-0.4285628068343852
2017-11-24 14:42:09.409 -0800,112,C4D50155-580C-4885-BACB-A13DEF47355A,1511563328.987711,49.27910824861578,-122.9162229875209,347.4966,0.07657836,87.60667689854911,3,16,-9999,139934.344232625,-0.1938323974609375,-0.251708984375,-0.8704071044921875,139934.312158625,-0.1866079638979612,-0.3902423155931261,-0.5563556570062735
2017-11-24 14:42:09.443 -0800,113,C4D50155-580C-4885-BACB-A13DEF47355A,1511563328.987711,49.27910824861578,-122.9162229875209,347.4966,0.07657836,87.60667689854911,3,16,-9999,139934.377313625,-0.139678955078125,-0.25225830078125,-0.7654266357421875,139934.345239625,-0.1794216900124914,-0.1632339316425538,-0.5344048180374044
2017-11-24 14:42:09.475 -0800,114,C4D50155-580C-4885-BACB-A13DEF47355A,1511563328.987711,49.27910824861578,-122.9162229875209,347.4966,0.07657836,87.60667689854911,3,16,-9999,139934.410364625,-0.0724639892578125,-0.307647705078125,-0.6920318603515625,139934.378290625,0.06495955899310377,0.09810206612692188,-0.4090801855638015
2017-11-24 14:42:09.509 -0800,115,C4D50155-580C-4885-BACB-A13DEF47355A,1511563328.987711,49.27910824861578,-122.9162229875209,347.4966,0.07657836,87.60667689854911,3,16,-9999,139934.443445625,-0.0550384521484375,-0.348175048828125,-0.7255859375,139934.411371625,0.05155853238782505,-0.01230060844285799,-0.3532278385504418
2017-11-24 14:42:09.541 -0800,116,C4D50155-580C-4885-BACB-A13DEF47355A,1511563328.987711,49.27910824861578,-122.9162229875209,347.4966,0.07657836,87.60667689854911,3,16,-9999,139934.476495625,-0.09613037109375,-0.344818115234375,-0.8199005126953125,139934.444421625,-0.08567602279672115,-0.3334011368670198,-0.4075877500889211
2017-11-24 14:42:09.575 -0800,117,C4D50155-580C-4885-BACB-A13DEF47355A,1511563328.987711,49.27910824861578,-122.9162229875209,347.4966,0.07657836,87.60667689854911,3,16,-9999,139934.509561375,-0.126434326171875,-0.3538970947265625,-0.9182891845703125,139934.510538375,0.0631352936463995,-0.1006227480986819,-0.203271096522478
2017-11-24 14:42:09.607 -0800,118,C4D50155-580C-4885-BACB-A13DEF47355A,1511563328.987711,49.27910824861578,-122.9162229875209,347.4966,0.07657836,87.60667689854911,3,16,-9999,139934.542612375,-0.122161865234375,-0.4115447998046875,-0.980438232421875,139934.510538375,0.0631352936463995,-0.1006227480986819,-0.203271096522478
2017-11-24 14:42:09.641 -0800,119,C4D50155-580C-4885-BACB-A13DEF47355A,1511563328.987711,49.27910824861578,-122.9162229875209,347.4966,0.07657836,87.60667689854911,3,16,-9999,139934.575693375,-0.08929443359375,-0.454132080078125,-1.037109375,139934.543619375,0.0150974602196592,0.2728017052105938,-0.09903337356012258
2017-11-24 14:42:09.673 -0800,120,C4D50155-580C-4885-BACB-A13DEF47355A,1511563328.987711,49.27910824861578,-122.9162229875209,347.4966,0.07657836,87.60667689854911,3,16,-9999,139934.608713375,-0.0963897705078125,-0.4556121826171875,-1.09112548828125,139934.576669375,0.04011998918982571,0.2567052932660459,-0.01778245923067709
2017-11-24 14:42:09.708 -0800,121,C4D50155-580C-4885-BACB-A13DEF47355A,1511563328.987711,49.27910824861578,-122.9162229875209,347.4966,0.07657836,87.60667689854911,3,16,-9999,139934.641824375,-0.1278533935546875,-0.452789306640625,-1.105514526367188,139934.609750375,0.1664880481785216,0.02606249337584245,0.06056987056832616
2017-11-24 14:42:09.739 -0800,122,C4D50155-580C-4885-BACB-A13DEF47355A,1511563328.987711,49.27910824861578,-122.9162229875209,347.4966,0.07657836,87.60667689854911,3,16,-9999,139934.674844375,-0.0875244140625,-0.4511566162109375,-1.11395263671875,139934.642801375,0.1979375838073763,0.2137538312052479,0.08606484431587272
2017-11-24 14:42:09.775 -0800,123,C4D50155-580C-4885-BACB-A13DEF47355A,1511563328.987711,49.27910824861578,-122.9162229875209,347.4966,0.07657836,87.60667689854911,3,16,-9999,139934.707956375,-0.0829315185546875,-0.356689453125,-1.13775634765625,139934.675882375,0.01145319058399477,0.2851590389846705,0.1487284921332192
2017-11-24 14:42:09.805 -0800,124,C4D50155-580C-4885-BACB-A13DEF47355A,1511563328.987711,49.27910824861578,-122.9162229875209,347.4966,0.07657836,87.60667689854911,3,16,-9999,139934.740976375,-0.07574462890625,-0.2803802490234375,-1.082351684570312,139934.708933375,0.1964952157609894,-0.02515728492132452,0.2056391793637765
2017-11-24 14:42:09.839 -0800,125,C4D50155-580C-4885-BACB-A13DEF47355A,1511563328.987711,49.27910824861578,-122.9162229875209,347.4966,0.07657836,87.60667689854911,3,16,-9999,139934.774088375,-0.0437469482421875,-0.29095458984375,-0.988861083984375,139934.742014375,0.4671631963062117,-0.0185324053936434,0.3361527149052897
2017-11-24 14:42:09.871 -0800,126,C4D50155-580C-4885-BACB-A13DEF47355A,1511563328.987711,49.27910824861578,-122.9162229875209,347.4966,0.07657836,87.60667689854911,3,16,-9999,139934.807108375,-0.022796630859375,-0.2999725341796875,-0.92938232421875,139934.775064375,0.2939890158949372,0.1535522758156797,0.4556716562025198
2017-11-24 14:42:09.906 -0800,127,C4D50155-580C-4885-BACB-A13DEF47355A,1511563328.987711,49.27910824861578,-122.9162229875209,347.4966,0.07657836,87.60667689854911,3,16,-9999,139934.840219375,-0.05389404296875,-0.2506866455078125,-0.891998291015625,139934.808145375,0.01613129935482796,0.004678641403051206,0.3821119511012231
2017-11-24 14:42:09.937 -0800,128,C4D50155-580C-4885-BACB-A13DEF47355A,1511563328.987711,49.27910824861578,-122.9162229875209,347.4966,0.07657836,87.60667689854911,3,16,-9999,139934.873239375,-0.08013916015625,-0.218292236328125,-0.8110198974609375,139934.841196375,-0.03086816756289043,0.01122762083966506,0.3312738037882645
2017-11-24 14:42:09.971 -0800,129,C4D50155-580C-4885-BACB-A13DEF47355A,1511563328.987711,49.27910824861578,-122.9162229875209,347.4966,0.07657836,87.60667689854911,3,16,-9999,139934.906320375,-0.0667877197265625,-0.253875732421875,-0.717041015625,139934.874277375,0.1937063534674584,0.3362789487409595,0.4500049820350492
2017-11-24 14:42:10.003 -0800,130,C4D50155-580C-4885-BACB-A13DEF47355A,1511563328.987711,49.27910824861578,-122.9162229875209,347.4966,0.07657836,87.60667689854911,3,16,-9999,139934.939371375,-0.0446929931640625,-0.280731201171875,-0.675537109375,139934.907297375,0.1469811921420182,0.5580590148394882,0.4996617510884487
2017-11-24 14:42:10.037 -0800,131,C4D50155-580C-4885-BACB-A13DEF47355A,1511563328.987711,49.27910824861578,-122.9162229875209,347.4966,0.07657836,87.60667689854911,3,16,-9999,139934.972452375,-0.064208984375,-0.29071044921875,-0.700592041015625,139934.940408375,0.06644373866860492,0.4087419641053615,0.4297479135194705
2017-11-24 14:42:10.070 -0800,132,C4D50155-580C-4885-BACB-A13DEF47355A,1511563328.987711,49.27910824861578,-122.9162229875209,347.4966,0.07657836,87.60667689854911,3,16,-9999,139935.005502375,-0.093109130859375,-0.2758026123046875,-0.7406463623046875,139934.973428375,0.1199695481536715,0.1423494223741524,0.4024430554951061
2017-11-24 14:42:10.111 -0800,133,C4D50155-580C-4885-BACB-A13DEF47355A,1511563328.987711,49.27910824861578,-122.9162229875209,347.4966,0.07657836,87.60667689854911,3,16,-9999,139935.038583375,-0.1162261962890625,-0.312286376953125,-0.8074188232421875,139935.006540375,0.09943551088472455,0.196548478982791,0.3756063811903776
2017-11-24 14:42:10.136 -0800,134,C4D50155-580C-4885-BACB-A13DEF47355A,1511563328.987711,49.27910824861578,-122.9162229875209,347.4966,0.07657836,87.60667689854911,3,16,-9999,139935.071634375,-0.1431427001953125,-0.3136138916015625,-0.894073486328125,139935.039560375,-0.08263762230904975,0.179038727447738,0.2956257947008999
2017-11-24 14:42:10.170 -0800,135,C4D50155-580C-4885-BACB-A13DEF47355A,1511563328.987711,49.27910824861578,-122.9162229875209,347.4966,0.07657836,87.60667689854911,3,16,-9999,139935.104715375,-0.204559326171875,-0.318634033203125,-0.9927825927734375,139935.072672375,-0.2146124343406895,-0.1206971237634812,0.1403805473802568
2017-11-24 14:42:10.202 -0800,136,C4D50155-580C-4885-BACB-A13DEF47355A,1511563328.987711,49.27910824861578,-122.9162229875209,347.4966,0.07657836,87.60667689854911,3,16,-9999,139935.137766375,-0.2710418701171875,-0.30767822265625,-1.089553833007812,139935.105692375,-0.5234001037809789,-0.3350853199403859,-0.0625944056290044
2017-11-24 14:42:10.236 -0800,137,C4D50155-580C-4885-BACB-A13DEF47355A,1511563329.98769,49.2791080202701,-122.9162187207477,347.4844,0.06054141,90.07542145329354,3,16,-9999,139935.170847375,-0.2440185546875,-0.3016815185546875,-1.148788452148438,139935.138803375,-0.820008338608009,0.002201102640950491,-0.246997005828271
2017-11-24 14:42:10.269 -0800,138,C4D50155-580C-4885-BACB-A13DEF47355A,1511563329.98769,49.2791080202701,-122.9162187207477,347.4844,0.06054141,90.07542145329354,3,16,-9999,139935.203897375,-0.208526611328125,-0.247406005859375,-1.222763061523438,139935.171823375,-1.104390000870485,0.2037470034092752,-0.4942486098567536
2017-11-24 14:42:10.302 -0800,139,C4D50155-580C-4885-BACB-A13DEF47355A,1511563329.98769,49.2791080202701,-122.9162187207477,347.4844,0.06054141,90.07542145329354,3,16,-9999,139935.236978375,-0.20989990234375,-0.175567626953125,-1.174148559570312,139935.204904375,-1.099426667546905,-0.07611261132224661,-0.6628677195395566
2017-11-24 14:42:10.334 -0800,140,C4D50155-580C-4885-BACB-A13DEF47355A,1511563329.98769,49.2791080202701,-122.9162187207477,347.4844,0.06054141,90.07542145329354,3,16,-9999,139935.270029375,-0.16162109375,-0.233306884765625,-1.074920654296875,139935.237955375,-0.3021324298761815,-0.03675481883640158,-0.4991445652047553
2017-11-24 14:42:10.368 -0800,141,C4D50155-580C-4885-BACB-A13DEF47355A,1511563329.98769,49.2791080202701,-122.9162187207477,347.4844,0.06054141,90.07542145329354,3,16,-9999,139935.303110375,-0.168212890625,-0.2775421142578125,-0.9956512451171875,139935.271036375,-0.09449002074044741,-0.1574351646850152,-0.2892757533977149
2017-11-24 14:42:10.400 -0800,142,C4D50155-580C-4885-BACB-A13DEF47355A,1511563329.98769,49.2791080202701,-122.9162187207477,347.4844,0.06054141,90.07542145329354,3,16,-9999,139935.336160375,-0.1560821533203125,-0.2642822265625,-0.940185546875,139935.304086375,-0.2422640359389822,-0.248273192622637,-0.34221140638522
2017-11-24 14:42:10.435 -0800,143,C4D50155-580C-4885-BACB-A13DEF47355A,1511563329.98769,49.2791080202701,-122.9162187207477,347.4844,0.06054141,90.07542145329354,3,16,-9999,139935.369241375,-0.12066650390625,-0.2361602783203125,-0.845672607421875,139935.337167375,-0.3049814796103483,-0.1725584575672482,-0.4995248646084186
2017-11-24 14:42:10.467 -0800,144,C4D50155-580C-4885-BACB-A13DEF47355A,1511563329.98769,49.2791080202701,-122.9162187207477,347.4844,0.06054141,90.07542145329354,3,16,-9999,139935.402292375,-0.0865325927734375,-0.2522430419921875,-0.7479705810546875,139935.370218375,-0.02410666787128826,-0.03113022261415423,-0.4184827421084353
2017-11-24 14:42:10.500 -0800,145,C4D50155-580C-4885-BACB-A13DEF47355A,1511563329.98769,49.2791080202701,-122.9162187207477,347.4844,0.06054141,90.07542145329354,3,16,-9999,139935.435373375,-0.0745697021484375,-0.295684814453125,-0.7230987548828125,139935.403299375,0.1640006557203876,-0.06351000041177364,-0.3331934103019937
2017-11-24 14:42:10.533 -0800,146,C4D50155-580C-4885-BACB-A13DEF47355A,1511563329.98769,49.2791080202701,-122.9162187207477,347.4844,0.06054141,90.07542145329354,3,16,-9999,139935.468424375,-0.083709716796875,-0.313079833984375,-0.7874755859375,139935.436350375,0.05212738359666597,-0.2000622537250416,-0.3791947244431503
2017-11-24 14:42:10.567 -0800,147,C4D50155-580C-4885-BACB-A13DEF47355A,1511563329.98769,49.2791080202701,-122.9162187207477,347.4844,0.06054141,90.07542145329354,3,16,-9999,139935.501491875,-0.1061553955078125,-0.30352783203125,-0.8916473388671875,139935.469431375,-0.04701757641313094,-0.2411977062385145,-0.3949521159809312
2017-11-24 14:42:10.599 -0800,148,C4D50155-580C-4885-BACB-A13DEF47355A,1511563329.98769,49.2791080202701,-122.9162187207477,347.4844,0.06054141,90.07542145329354,3,16,-9999,139935.534511875,-0.131927490234375,-0.3130035400390625,-0.976593017578125,139935.502467875,0.01776727921246364,-0.2669046676088314,-0.3310692730165464
2017-11-24 14:42:10.633 -0800,149,C4D50155-580C-4885-BACB-A13DEF47355A,1511563329.98769,49.2791080202701,-122.9162187207477,347.4844,0.06054141,90.07542145329354,3,16,-9999,139935.567622875,-0.1117706298828125,-0.3383026123046875,-1.0054931640625,139935.535548875,0.1033748587691698,-0.1208017859943213,-0.24830728108459
2017-11-24 14:42:10.669 -0800,150,C4D50155-580C-4885-BACB-A13DEF47355A,1511563329.98769,49.2791080202701,-122.9162187207477,347.4844,0.06054141,90.07542145329354,3,16,-9999,139935.600642875,-0.07952880859375,-0.3629302978515625,-1.048416137695312,139935.568599875,0.2370370496674837,0.1567081217074236,-0.1313710734125187
2017-11-24 14:42:10.699 -0800,151,C4D50155-580C-4885-BACB-A13DEF47355A,1511563329.98769,49.2791080202701,-122.9162187207477,347.4844,0.06054141,90.07542145329354,3,16,-9999,139935.633754875,-0.10821533203125,-0.374053955078125,-1.092147827148438,139935.601680875,0.3941800655809172,0.01286466596173677,0.03496783774495842
2017-11-24 14:42:10.731 -0800,152,C4D50155-580C-4885-BACB-A13DEF47355A,1511563329.98769,49.2791080202701,-122.9162187207477,347.4844,0.06054141,90.07542145329354,3,16,-9999,139935.666774875,-0.0877227783203125,-0.41204833984375,-1.083282470703125,139935.634730875,0.5100890920205449,-0.07350084924120591,0.1421898990248566
2017-11-24 14:42:10.765 -0800,153,C4D50155-580C-4885-BACB-A13DEF47355A,1511563329.98769,49.2791080202701,-122.9162187207477,347.4844,0.06054141,90.07542145329354,3,16,-9999,139935.699885875,-0.0599822998046875,-0.3914337158203125,-1.103225708007812,139935.667811875,0.3535586031578296,0.2482236578263615,0.2145192237025367
2017-11-24 14:42:10.797 -0800,154,C4D50155-580C-4885-BACB-A13DEF47355A,1511563329.98769,49.2791080202701,-122.9162187207477,347.4844,0.06054141,90.07542145329354,3,16,-9999,139935.732905875,-0.063079833984375,-0.325408935546875,-1.116424560546875,139935.700862875,0.1367775567414886,0.2452515700498331,0.3891762522087673
2017-11-24 14:42:10.831 -0800,155,C4D50155-580C-4885-BACB-A13DEF47355A,1511563329.98769,49.2791080202701,-122.9162187207477,347.4844,0.06054141,90.07542145329354,3,16,-9999,139935.766017875,-0.0737457275390625,-0.308349609375,-1.09808349609375,139935.733943875,0.3737861105853084,-0.2029935951368917,0.3690779080941574
2017-11-24 14:42:10.863 -0800,156,C4D50155-580C-4885-BACB-A13DEF47355A,1511563329.98769,49.2791080202701,-122.9162187207477,347.4844,0.06054141,90.07542145329354,3,16,-9999,139935.799037875,-0.0722808837890625,-0.301666259765625,-1.056350708007812,139935.766993875,0.4075123826300719,-0.2369544916736912,0.3260151258997941
2017-11-24 14:42:10.897 -0800,157,C4D50155-580C-4885-BACB-A13DEF47355A,1511563329.98769,49.2791080202701,-122.9162187207477,347.4844,0.06054141,90.07542145329354,3,16,-9999,139935.832149875,-0.0952911376953125,-0.2456817626953125,-0.9839935302734375,139935.800075875,0.1014975965167729,-0.0579125684326451,0.2537896645046271
2017-11-24 14:42:10.929 -0800,158,C4D50155-580C-4885-BACB-A13DEF47355A,1511563329.98769,49.2791080202701,-122.9162187207477,347.4844,0.06054141,90.07542145329354,3,16,-9999,139935.865169875,-0.089630126953125,-0.1986846923828125,-0.8561859130859375,139935.833125875,-0.01010030475023452,0.1769263080710872,0.1852920960033531
2017-11-24 14:42:10.963 -0800,159,C4D50155-580C-4885-BACB-A13DEF47355A,1511563329.98769,49.2791080202701,-122.9162187207477,347.4844,0.06054141,90.07542145329354,3,16,-9999,139935.898250875,-0.057037353515625,-0.2066802978515625,-0.723175048828125,139935.866206875,0.2681081501054381,0.4583127130555514,0.3325606432269908
2017-11-24 14:42:10.995 -0800,160,C4D50155-580C-4885-BACB-A13DEF47355A,1511563329.98769,49.2791080202701,-122.9162187207477,347.4844,0.06054141,90.07542145329354,3,16,-9999,139935.931300875,-0.037353515625,-0.2458343505859375,-0.646270751953125,139935.899226875,0.4725987080910634,0.5414432864823748,0.4854330140163733
2017-11-24 14:42:11.029 -0800,161,C4D50155-580C-4885-BACB-A13DEF47355A,1511563329.98769,49.2791080202701,-122.9162187207477,347.4844,0.06054141,90.07542145329354,3,16,-9999,139935.964381875,-0.03936767578125,-0.275360107421875,-0.6450042724609375,139935.932338875,0.4865281058566139,0.4055789276786744,0.5002519075860102
2017-11-24 14:42:11.073 -0800,162,C4D50155-580C-4885-BACB-A13DEF47355A,1511563329.98769,49.2791080202701,-122.9162187207477,347.4844,0.06054141,90.07542145329354,3,16,-9999,139935.997432875,-0.0701446533203125,-0.2813568115234375,-0.7067108154296875,139935.965358875,0.3135291614450666,0.159813633854565,0.4953980301832318
2017-11-24 14:42:11.096 -0800,163,C4D50155-580C-4885-BACB-A13DEF47355A,1511563329.98769,49.2791080202701,-122.9162187207477,347.4844,0.06054141,90.07542145329354,3,16,-9999,139936.030513875,-0.12060546875,-0.28192138671875,-0.8001251220703125,139935.998469875,0.1538489519611145,-0.08046608075619914,0.3546734023901367
2017-11-24 14:42:11.128 -0800,164,C4D50155-580C-4885-BACB-A13DEF47355A,1511563329.98769,49.2791080202701,-122.9162187207477,347.4844,0.06054141,90.07542145329354,3,16,-9999,139936.063563875,-0.1860504150390625,-0.2829742431640625,-0.8963775634765625,139936.031489875,0.01924879572687472,-0.2285743226715389,0.2667470084722987
2017-11-24 14:42:11.163 -0800,165,C4D50155-580C-4885-BACB-A13DEF47355A,1511563329.98769,49.2791080202701,-122.9162187207477,347.4844,0.06054141,90.07542145329354,3,16,-9999,139936.096644875,-0.2412872314453125,-0.3004608154296875,-1.003005981445312,139936.064601875,-0.1215368184551831,-0.2153597173425657,0.1567616512453342
2017-11-24 14:42:11.194 -0800,166,C4D50155-580C-4885-BACB-A13DEF47355A,1511563329.98769,49.2791080202701,-122.9162187207477,347.4844,0.06054141,90.07542145329354,3,16,-9999,139936.129695875,-0.2830963134765625,-0.32171630859375,-1.066024780273438,139936.097621875,-0.3922721769759844,-0.2346311499387061,-0.02908651279362742
2017-11-24 14:42:11.228 -0800,167,C4D50155-580C-4885-BACB-A13DEF47355A,1511563330.987669,49.27910902361165,-122.9162221731724,347.5042,0.156494,89.86598053258426,3,16,-9999,139936.162776875,-0.2812957763671875,-0.342010498046875,-1.100112915039062,139936.130733875,-0.6312709111024205,-0.03119014373868102,-0.194667488304868
2017-11-24 14:42:11.260 -0800,168,C4D50155-580C-4885-BACB-A13DEF47355A,1511563330.987669,49.27910902361165,-122.9162221731724,347.5042,0.156494,89.86598053258426,3,16,-9999,139936.195826875,-0.2603759765625,-0.3459625244140625,-1.14007568359375,139936.163753875,-0.7139964177274428,0.1167087737149785,-0.3457954885802486
2017-11-24 14:42:11.294 -0800,169,C4D50155-580C-4885-BACB-A13DEF47355A,1511563330.987669,49.27910902361165,-122.9162221731724,347.5042,0.156494,89.86598053258426,3,16,-9999,139936.228908875,-0.2537994384765625,-0.2874603271484375,-1.14019775390625,139936.196834875,-0.8377151640637279,0.02930222884192384,-0.5939653505525905
2017-11-24 14:42:11.326 -0800,170,C4D50155-580C-4885-BACB-A13DEF47355A,1511563330.987669,49.27910902361165,-122.9162221731724,347.5042,0.156494,89.86598053258426,3,16,-9999,139936.261958875,-0.2289581298828125,-0.290374755859375,-1.097946166992188,139936.229884875,-0.5190434385537184,-0.01703757307378193,-0.5881873562515546
2017-11-24 14:42:11.360 -0800,171,C4D50155-580C-4885-BACB-A13DEF47355A,1511563330.987669,49.27910902361165,-122.9162221731724,347.5042,0.156494,89.86598053258426,3,16,-9999,139936.295039875,-0.212249755859375,-0.3085784912109375,-1.047286987304688,139936.262965875,-0.2918369154180441,-0.1462171312252745,-0.399247794819229
2017-11-24 14:42:11.392 -0800,172,C4D50155-580C-4885-BACB-A13DEF47355A,1511563330.987669,49.27910902361165,-122.9162221731724,347.5042,0.156494,89.86598053258426,3,16,-9999,139936.328090875,-0.2088165283203125,-0.270355224609375,-0.9972381591796875,139936.296016875,-0.3329787595181333,-0.2544370789656254,-0.3428393797702606
2017-11-24 14:42:11.429 -0800,173,C4D50155-580C-4885-BACB-A13DEF47355A,1511563330.987669,49.27910902361165,-122.9162221731724,347.5042,0.156494,89.86598053258426,3,16,-9999,139936.363185875,-0.1747589111328125,-0.2491607666015625,-0.863555908203125,139936.329097875,-0.2109204941215126,-0.2908187889333069,-0.3194008990164733
2017-11-24 14:42:11.458 -0800,174,C4D50155-580C-4885-BACB-A13DEF47355A,1511563330.987669,49.27910902361165,-122.9162221731724,347.5042,0.156494,89.86598053258426,3,16,-9999,139936.393245875,-0.1185455322265625,-0.2690277099609375,-0.73248291015625,139936.388209875,0.2782223032933411,0.05901032343397576,-0.1361631654780073
2017-11-24 14:42:11.489 -0800,175,C4D50155-580C-4885-BACB-A13DEF47355A,1511563330.987669,49.27910902361165,-122.9162221731724,347.5042,0.156494,89.86598053258426,3,16,-9999,139936.423305875,-0.068267822265625,-0.305084228515625,-0.6587371826171875,139936.418269875,0.1539357710126511,-0.01597017810887817,-0.1854359067022174
2017-11-24 14:42:11.518 -0800,176,C4D50155-580C-4885-BACB-A13DEF47355A,1511563330.987669,49.27910902361165,-122.9162221731724,347.5042,0.156494,89.86598053258426,3,16,-9999,139936.453364875,-0.055938720703125,-0.311553955078125,-0.6666717529296875,139936.448329875,0.005162271457009595,-0.2224024468452802,-0.2737649705768754
2017-11-24 14:42:11.548 -0800,177,C4D50155-580C-4885-BACB-A13DEF47355A,1511563330.987669,49.27910902361165,-122.9162221731724,347.5042,0.156494,89.86598053258426,3,16,-9999,139936.483394875,-0.076873779296875,-0.2992706298828125,-0.7585601806640625,139936.478358875,-0.04857392775417324,-0.3771571398931307,-0.296401839842549
2017-11-24 14:42:11.579 -0800,178,C4D50155-580C-4885-BACB-A13DEF47355A,1511563330.987669,49.27910902361165,-122.9162221731724,347.5042,0.156494,89.86598053258426,3,16,-9999,139936.5134479167,-0.112945556640625,-0.2906036376953125,-0.868988037109375,139936.5084129167,-0.06567834617131615,-0.2796351102516281,-0.2124648612376496
2017-11-24 14:42:11.609 -0800,179,C4D50155-580C-4885-BACB-A13DEF47355A,1511563330.987669,49.27910902361165,-122.9162221731724,347.5042,0.156494,89.86598053258426,3,16,-9999,139936.5435079167,-0.123199462890625,-0.31085205078125,-0.9570770263671875,139936.5384729167,-0.02179317983233642,0.03738838485973144,-0.1321886638671731
2017-11-24 14:42:11.639 -0800,180,C4D50155-580C-4885-BACB-A13DEF47355A,1511563330.987669,49.27910902361165,-122.9162221731724,347.5042,0.156494,89.86598053258426,3,16,-9999,139936.5735679167,-0.1145782470703125,-0.3406982421875,-1.030853271484375,139936.5685329167,-0.02872006182763252,0.1200004408223164,-0.02682921745367626
2017-11-24 14:42:11.669 -0800,181,C4D50155-580C-4885-BACB-A13DEF47355A,1511563330.987669,49.27910902361165,-122.9162221731724,347.5042,0.156494,89.86598053258426,3,16,-9999,139936.6036279167,-0.139892578125,-0.3587493896484375,-1.101043701171875,139936.5985919167,-0.00539263489130145,0.00424960615143944,0.004164651312665912
2017-11-24 14:42:11.699 -0800,182,C4D50155-580C-4885-BACB-A13DEF47355A,1511563330.987669,49.27910902361165,-122.9162221731724,347.5042,0.156494,89.86598053258426,3,16,-9999,139936.6336879167,-0.1866455078125,-0.355926513671875,-1.146392822265625,139936.6286519167,0.03493295033467837,0.06247376443162381,0.03163835375014135
2017-11-24 14:42:11.729 -0800,183,C4D50155-580C-4885-BACB-A13DEF47355A,1511563330.987669,49.27910902361165,-122.9162221731724,347.5042,0.156494,89.86598053258426,3,16,-9999,139936.6637479167,-0.1707305908203125,-0.376739501953125,-1.151336669921875,139936.6587119167,0.03098002032867376,0.285141462121476,0.1320730826758636
2017-11-24 14:42:11.759 -0800,184,C4D50155-580C-4885-BACB-A13DEF47355A,1511563330.987669,49.27910902361165,-122.9162221731724,347.5042,0.156494,89.86598053258426,3,16,-9999,139936.6938069167,-0.15069580078125,-0.3506927490234375,-1.174713134765625,139936.6887719167,-0.1188238562527194,0.2640572157713186,0.2590025360223482
2017-11-24 14:42:11.789 -0800,185,C4D50155-580C-4885-BACB-A13DEF47355A,1511563330.987669,49.27910902361165,-122.9162221731724,347.5042,0.156494,89.86598053258426,3,16,-9999,139936.7238669167,-0.16204833984375,-0.2614898681640625,-1.178970336914062,139936.7188319167,0.1453026017069413,-0.0283091360714333,0.2589247717185179
2017-11-24 14:42:11.819 -0800,186,C4D50155-580C-4885-BACB-A13DEF47355A,1511563330.987669,49.27910902361165,-122.9162221731724,347.5042,0.156494,89.86598053258426,3,16,-9999,139936.7539269167,-0.1532745361328125,-0.2523345947265625,-1.113479614257812,139936.7488919167,0.4102889943825885,-0.1150293843315745,0.3816634747736538
2017-11-24 14:42:11.849 -0800,187,C4D50155-580C-4885-BACB-A13DEF47355A,1511563330.987669,49.27910902361165,-122.9162221731724,347.5042,0.156494,89.86598053258426,3,16,-9999,139936.7839869167,-0.1387176513671875,-0.283599853515625,-1.036941528320312,139936.7789509167,0.1565976005221853,-0.03384345113272696,0.3909962564977275
2017-11-24 14:42:11.879 -0800,188,C4D50155-580C-4885-BACB-A13DEF47355A,1511563330.987669,49.27910902361165,-122.9162221731724,347.5042,0.156494,89.86598053258426,3,16,-9999,139936.8140469167,-0.127532958984375,-0.254547119140625,-0.976898193359375,139936.8090109167,-0.03254302957244127,0.01665647472179159,0.253619222194862
2017-11-24 14:42:11.909 -0800,189,C4D50155-580C-4885-BACB-A13DEF47355A,1511563330.987669,49.27910902361165,-122.9162221731724,347.5042,0.156494,89.86598053258426,3,16,-9999,139936.8441059167,-0.11297607421875,-0.2152862548828125,-0.8914794921875,139936.8390709167,0.1846473447034449,0.166737320056553,0.3196794656664956
2017-11-24 14:42:11.940 -0800,190,C4D50155-580C-4885-BACB-A13DEF47355A,1511563330.987669,49.27910902361165,-122.9162221731724,347.5042,0.156494,89.86598053258426,3,16,-9999,139936.8741659167,-0.0918731689453125,-0.2184906005859375,-0.7852630615234375,139936.8691309167,0.4092761942200314,0.2764121527004142,0.4315109261611029
2017-11-24 14:42:11.970 -0800,191,C4D50155-580C-4885-BACB-A13DEF47355A,1511563330.987669,49.27910902361165,-122.9162221731724,347.5042,0.156494,89.86598053258426,3,16,-9999,139936.9042259167,-0.07025146484375,-0.2422637939453125,-0.704681396484375,139936.8991909167,0.4789910936555806,0.2327176686954842,0.4560913703903163
2017-11-24 14:42:11.999 -0800,192,C4D50155-580C-4885-BACB-A13DEF47355A,1511563330.987669,49.27910902361165,-122.9162221731724,347.5042,0.156494,89.86598053258426,3,16,-9999,139936.9342859167,-0.0673370361328125,-0.25592041015625,-0.6697845458984375,139936.9292499167,0.4922230095316393,0.09688446887653765,0.4517541462390132
2017-11-24 14:42:12.029 -0800,193,C4D50155-580C-4885-BACB-A13DEF47355A,1511563330.987669,49.27910902361165,-122.9162221731724,347.5042,0.156494,89.86598053258426,3,16,-9999,139936.9643459167,-0.0794830322265625,-0.2701263427734375,-0.6860809326171875,139936.9593099167,0.3926695206106243,-0.04495122972333845,0.3740622803903497
2017-11-24 14:42:12.059 -0800,194,C4D50155-580C-4885-BACB-A13DEF47355A,1511563330.987669,49.27910902361165,-122.9162221731724,347.5042,0.156494,89.86598053258426,3,16,-9999,139936.9944049167,-0.103759765625,-0.2740631103515625,-0.7432861328125,139936.9893699167,0.2107138328209225,-0.09851112767035805,0.2780441378164148
2017-11-24 14:42:12.090 -0800,195,C4D50155-580C-4885-BACB-A13DEF47355A,1511563330.987669,49.27910902361165,-122.9162221731724,347.5042,0.156494,89.86598053258426,3,16,-9999,139937.0244649167,-0.13470458984375,-0.2676239013671875,-0.8253936767578125,139937.0194299167,0.06930184315047797,-0.1341314398823859,0.18707268550818
2017-11-24 14:42:12.120 -0800,196,C4D50155-580C-4885-BACB-A13DEF47355A,1511563330.987669,49.27910902361165,-122.9162221731724,347.5042,0.156494,89.86598053258426,3,16,-9999,139937.0545249167,-0.1662750244140625,-0.2696533203125,-0.8974761962890625,139937.0494899167,0.03628743406509267,-0.1010901328699908,0.1376204472264987
2017-11-24 14:42:12.150 -0800,197,C4D50155-580C-4885-BACB-A13DEF47355A,1511563330.987669,49.27910902361165,-122.9162221731724,347.5042,0.156494,89.86598053258426,3,16,-9999,139937.0845849167,-0.1985931396484375,-0.2917022705078125,-0.959808349609375,139937.0795499167,-0.1299284390500228,-0.1377370936822442,0.06001380253271762
2017-11-24 14:42:12.180 -0800,198,C4D50155-580C-4885-BACB-A13DEF47355A,1511563330.987669,49.27910902361165,-122.9162221731724,347.5042,0.156494,89.86598053258426,3,16,-9999,139937.1146449167,-0.24969482421875,-0.3032684326171875,-1.00115966796875,139937.1096089167,-0.3851551452788567,-0.1761728997987037,-0.1053871432888336
2017-11-24 14:42:12.209 -0800,199,C4D50155-580C-4885-BACB-A13DEF47355A,1511563331.987649,49.27910866932275,-122.9162166887906,347.4854,0.07510396,98.24486045538406,3,16,-9999,139937.1447049167,-0.285980224609375,-0.3173828125,-1.035263061523438,139937.1396689167,-0.5219002114550463,-0.01123880611624339,-0.2170588141180362
2017-11-24 14:42:12.240 -0800,200,C4D50155-580C-4885-BACB-A13DEF47355A,1511563331.987649,49.27910866932275,-122.9162166887906,347.4854,0.07510396,98.24486045538406,3,16,-9999,139937.1747639167,-0.2850799560546875,-0.3319549560546875,-1.057342529296875,139937.1697289167,-0.4987695921232721,0.02287708639599867,-0.3558696943518003
2017-11-24 14:42:12.270 -0800,201,C4D50155-580C-4885-BACB-A13DEF47355A,1511563331.987649,49.27910866932275,-122.9162166887906,347.4854,0.07510396,98.24486045538406,3,16,-9999,139937.2048239167,-0.296234130859375,-0.3283538818359375,-1.076553344726562,139937.1997889167,-0.5299962211688872,-0.2154476016585383,-0.5729157252966042
2017-11-24 14:42:12.300 -0800,202,C4D50155-580C-4885-BACB-A13DEF47355A,1511563331.987649,49.27910866932275,-122.9162166887906,347.4854,0.07510396,98.24486045538406,3,16,-9999,139937.2348839167,-0.3224334716796875,-0.2790679931640625,-1.082656860351562,139937.2298489167,-0.4744298976566019,-0.2226461260850225,-0.8005622026443595
2017-11-24 14:42:12.330 -0800,203,C4D50155-580C-4885-BACB-A13DEF47355A,1511563331.987649,49.27910866932275,-122.9162166887906,347.4854,0.07510396,98.24486045538406,3,16,-9999,139937.2649439167,-0.307098388671875,-0.239410400390625,-1.069580078125,139937.2599079167,-0.5088597768613643,0.04378077042424863,-0.8228896125913658
2017-11-24 14:42:12.360 -0800,204,C4D50155-580C-4885-BACB-A13DEF47355A,1511563331.987649,49.27910866932275,-122.9162166887906,347.4854,0.07510396,98.24486045538406,3,16,-9999,139937.2950039167,-0.279632568359375,-0.214630126953125,-1.057373046875,139937.2899679167,-0.492951650405885,0.03402161660965326,-0.7098863612171236
2017-11-24 14:42:12.390 -0800,205,C4D50155-580C-4885-BACB-A13DEF47355A,1511563331.987649,49.27910866932275,-122.9162166887906,347.4854,0.07510396,98.24486045538406,3,16,-9999,139937.3250629167,-0.2616424560546875,-0.2149200439453125,-1.02508544921875,139937.3200279167,-0.4094748660373513,-0.1074553541913892,-0.5959520687257897
2017-11-24 14:42:12.420 -0800,206,C4D50155-580C-4885-BACB-A13DEF47355A,1511563331.987649,49.27910866932275,-122.9162166887906,347.4854,0.07510396,98.24486045538406,3,16,-9999,139937.3551229167,-0.2430419921875,-0.237579345703125,-0.969696044921875,139937.3500879167,-0.2907447530550026,-0.06332224755492305,-0.4883630238476785
2017-11-24 14:42:12.450 -0800,207,C4D50155-580C-4885-BACB-A13DEF47355A,1511563331.987649,49.27910866932275,-122.9162166887906,347.4854,0.07510396,98.24486045538406,3,16,-9999,139937.3851529167,-0.190093994140625,-0.2698516845703125,-0.847412109375,139937.3801169167,-0.03121144902740165,0.2086884988119172,-0.4265435980958872
2017-11-24 14:42:12.481 -0800,208,C4D50155-580C-4885-BACB-A13DEF47355A,1511563331.987649,49.27910866932275,-122.9162166887906,347.4854,0.07510396,98.24486045538406,3,16,-9999,139937.4152119167,-0.1025390625,-0.30413818359375,-0.73291015625,139937.4101769167,0.1284591730766261,0.2061829968583707,-0.4076458070006849
2017-11-24 14:42:12.510 -0800,209,C4D50155-580C-4885-BACB-A13DEF47355A,1511563331.987649,49.27910866932275,-122.9162166887906,347.4854,0.07510396,98.24486045538406,3,16,-9999,139937.4452719167,-0.052947998046875,-0.330078125,-0.6774749755859375,139937.4402369167,0.1075376458690726,-0.03881370867514184,-0.4415925887837069
2017-11-24 14:42:12.540 -0800,210,C4D50155-580C-4885-BACB-A13DEF47355A,1511563331.987649,49.27910866932275,-122.9162166887906,347.4854,0.07510396,98.24486045538406,3,16,-9999,139937.4753319167,-0.0550079345703125,-0.3273773193359375,-0.69781494140625,139937.4702969167,-0.008113320260926399,-0.2188870742063757,-0.4696889382840428
2017-11-24 14:42:12.570 -0800,211,C4D50155-580C-4885-BACB-A13DEF47355A,1511563331.987649,49.27910866932275,-122.9162166887906,347.4854,0.07510396,98.24486045538406,3,16,-9999,139937.5053665417,-0.0760345458984375,-0.3259735107421875,-0.7755126953125,139937.5003305417,-0.08558121426191434,-0.2102824007243296,-0.4338768784735293
2017-11-24 14:42:12.601 -0800,212,C4D50155-580C-4885-BACB-A13DEF47355A,1511563331.987649,49.27910866932275,-122.9162166887906,347.4854,0.07510396,98.24486045538406,3,16,-9999,139937.5354265417,-0.0886077880859375,-0.3384246826171875,-0.8634033203125,139937.5303905417,-0.03860198736848054,-0.1119222742877791,-0.2977046582478157
2017-11-24 14:42:12.631 -0800,213,C4D50155-580C-4885-BACB-A13DEF47355A,1511563331.987649,49.27910866932275,-122.9162166887906,347.4854,0.07510396,98.24486045538406,3,16,-9999,139937.5654855417,-0.097503662109375,-0.3625030517578125,-0.9479522705078125,139937.5604505417,0.03356541711492269,-0.1303140647758663,-0.1719837474040091
2017-11-24 14:42:12.661 -0800,214,C4D50155-580C-4885-BACB-A13DEF47355A,1511563331.987649,49.27910866932275,-122.9162166887906,347.4854,0.07510396,98.24486045538406,3,16,-9999,139937.5955455417,-0.1209564208984375,-0.374237060546875,-1.024093627929688,139937.5905105417,0.08476628696835009,-0.1337815005151494,-0.06150357484650795
2017-11-24 14:42:12.692 -0800,215,C4D50155-580C-4885-BACB-A13DEF47355A,1511563331.987649,49.27910866932275,-122.9162166887906,347.4854,0.07510396,98.24486045538406,3,16,-9999,139937.6256055417,-0.155059814453125,-0.3737030029296875,-1.09759521484375,139937.6205705417,0.1656044113288333,-0.1415760403935934,0.06014909111609364
2017-11-24 14:42:12.721 -0800,216,C4D50155-580C-4885-BACB-A13DEF47355A,1511563331.987649,49.27910866932275,-122.9162166887906,347.4854,0.07510396,98.24486045538406,3,16,-9999,139937.6556655417,-0.200103759765625,-0.3755340576171875,-1.157135009765625,139937.6506295417,0.08351779704932094,-0.1764725054213377,0.1021519351966054
2017-11-24 14:42:12.751 -0800,217,C4D50155-580C-4885-BACB-A13DEF47355A,1511563331.987649,49.27910866932275,-122.9162166887906,347.4854,0.07510396,98.24486045538406,3,16,-9999,139937.6857255417,-0.212860107421875,-0.3929595947265625,-1.184982299804688,139937.6806895417,-0.0370208686293005,0.03917802911226468,0.1046984498309391
2017-11-24 14:42:12.781 -0800,218,C4D50155-580C-4885-BACB-A13DEF47355A,1511563331.987649,49.27910866932275,-122.9162166887906,347.4854,0.07510396,98.24486045538406,3,16,-9999,139937.7157855417,-0.191650390625,-0.35357666015625,-1.223403930664062,139937.7107495417,-0.06211556926500815,0.1113078830242978,0.1533304344968761
2017-11-24 14:42:12.811 -0800,219,C4D50155-580C-4885-BACB-A13DEF47355A,1511563331.987649,49.27910866932275,-122.9162166887906,347.4854,0.07510396,98.24486045538406,3,16,-9999,139937.7458445417,-0.175933837890625,-0.273101806640625,-1.202178955078125,139937.7408095417,0.2863316288126324,-0.02215803290167728,0.195608116801884
2017-11-24 14:42:12.841 -0800,220,C4D50155-580C-4885-BACB-A13DEF47355A,1511563331.987649,49.27910866932275,-122.9162166887906,347.4854,0.07510396,98.24486045538406,3,16,-9999,139937.7759045417,-0.155487060546875,-0.2433624267578125,-1.097869873046875,139937.7708695417,0.5103490165429366,-0.009042497165255046,0.3125128991730923
2017-11-24 14:42:12.871 -0800,221,C4D50155-580C-4885-BACB-A13DEF47355A,1511563331.987649,49.27910866932275,-122.9162166887906,347.4854,0.07510396,98.24486045538406,3,16,-9999,139937.8059645417,-0.1220245361328125,-0.2579803466796875,-0.98828125,139937.8009295417,0.3896092822020142,0.1099952109229977,0.3541727281052018
2017-11-24 14:42:12.901 -0800,222,C4D50155-580C-4885-BACB-A13DEF47355A,1511563331.987649,49.27910866932275,-122.9162166887906,347.4854,0.07510396,98.24486045538406,3,16,-9999,139937.8360245417,-0.0936737060546875,-0.2578582763671875,-0.9265289306640625,139937.8309885417,0.1323729546146065,0.1180677848192459,0.3058336911591736
2017-11-24 14:42:12.931 -0800,223,C4D50155-580C-4885-BACB-A13DEF47355A,1511563331.987649,49.27910866932275,-122.9162166887906,347.4854,0.07510396,98.24486045538406,3,16,-9999,139937.8660845417,-0.0986480712890625,-0.2243499755859375,-0.8815460205078125,139937.8610485417,0.1712814718245552,0.1720247600847963,0.3502871760747763
2017-11-24 14:42:12.961 -0800,224,C4D50155-580C-4885-BACB-A13DEF47355A,1511563331.987649,49.27910866932275,-122.9162166887906,347.4854,0.07510396,98.24486045538406,3,16,-9999,139937.8961435417,-0.1053314208984375,-0.215057373046875,-0.8204803466796875,139937.8911085417,0.4265880728860915,0.2529750035271719,0.4679339151256807
2017-11-24 14:42:12.991 -0800,225,C4D50155-580C-4885-BACB-A13DEF47355A,1511563331.987649,49.27910866932275,-122.9162166887906,347.4854,0.07510396,98.24486045538406,3,16,-9999,139937.9262035417,-0.1076202392578125,-0.2344207763671875,-0.74542236328125,139937.9211685417,0.5876890788116008,0.2843481064327413,0.5326711001677628
2017-11-24 14:42:13.021 -0800,226,C4D50155-580C-4885-BACB-A13DEF47355A,1511563331.987649,49.27910866932275,-122.9162166887906,347.4854,0.07510396,98.24486045538406,3,16,-9999,139937.9562635417,-0.101806640625,-0.271209716796875,-0.701812744140625,139937.9512285417,0.5934470994044611,0.1783124834184734,0.4814728934754255
2017-11-24 14:42:13.051 -0800,227,C4D50155-580C-4885-BACB-A13DEF47355A,1511563331.987649,49.27910866932275,-122.9162166887906,347.4854,0.07510396,98.24486045538406,3,16,-9999,139937.9863235417,-0.093414306640625,-0.296875,-0.693450927734375,139937.9812875417,0.5102560722208929,0.05874107784776875,0.3913749580047368
2017-11-24 14:42:13.081 -0800,228,C4D50155-580C-4885-BACB-A13DEF47355A,1511563331.987649,49.27910866932275,-122.9162166887906,347.4854,0.07510396,98.24486045538406,3,16,-9999,139938.0163835417,-0.09527587890625,-0.3001251220703125,-0.723236083984375,139938.0113475417,0.3439152968506526,0.006175870567893754,0.3158546337089237
2017-11-24 14:42:13.112 -0800,229,C4D50155-580C-4885-BACB-A13DEF47355A,1511563331.987649,49.27910866932275,-122.9162166887906,347.4854,0.07510396,98.24486045538406,3,16,-9999,139938.0464425417,-0.1057891845703125,-0.2933349609375,-0.7714385986328125,139938.0414075417,0.1984795370892075,-0.01465351126594299,0.2716392353947742
2017-11-24 14:42:13.142 -0800,230,C4D50155-580C-4885-BACB-A13DEF47355A,1511563331.987649,49.27910866932275,-122.9162166887906,347.4854,0.07510396,98.24486045538406,3,16,-9999,139938.0765025417,-0.124237060546875,-0.29156494140625,-0.812103271484375,139938.0714675417,0.1443888711369351,-0.07708093669459942,0.237519880773115
2017-11-24 14:42:13.172 -0800,231,C4D50155-580C-4885-BACB-A13DEF47355A,1511563331.987649,49.27910866932275,-122.9162166887906,347.4854,0.07510396,98.24486045538406,3,16,-9999,139938.1065625417,-0.16278076171875,-0.29962158203125,-0.861663818359375,139938.1015275417,-0.03288258261142637,-0.1837317499206756,0.1606035274338825
2017-11-24 14:42:13.202 -0800,232,C4D50155-580C-4885-BACB-A13DEF47355A,1511563331.987649,49.27910866932275,-122.9162166887906,347.4854,0.07510396,98.24486045538406,3,16,-9999,139938.1366225417,-0.2234344482421875,-0.292449951171875,-0.9253082275390625,139938.1315875417,-0.2683193387798814,-0.2074021920054089,0.02431892181016757
2017-11-24 14:42:13.232 -0800,233,C4D50155-580C-4885-BACB-A13DEF47355A,1511563332.987628,49.27910835052629,-122.9162159114841,347.5107,0.0006561729,95.5286513168209,3,16,-9999,139938.1666825417,-0.276947021484375,-0.2953643798828125,-0.977081298828125,139938.1616465417,-0.4997525648816203,-0.0592907542967611,-0.05085678944058916
2017-11-24 14:42:13.262 -0800,234,C4D50155-580C-4885-BACB-A13DEF47355A,1511563332.987628,49.27910835052629,-122.9162159114841,347.5107,0.0006561729,95.5286513168209,3,16,-9999,139938.1967425417,-0.290924072265625,-0.336395263671875,-1.021133422851562,139938.1917065417,-0.643019978883523,0.03556518477746318,-0.1202774095756847
2017-11-24 14:42:13.293 -0800,235,C4D50155-580C-4885-BACB-A13DEF47355A,1511563332.987628,49.27910835052629,-122.9162159114841,347.5107,0.0006561729,95.5286513168209,3,16,-9999,139938.2268015417,-0.311981201171875,-0.3639373779296875,-1.111297607421875,139938.2217665417,-0.9916951435504744,-0.208377707912705,-0.365538034373224
2017-11-24 14:42:13.322 -0800,236,C4D50155-580C-4885-BACB-A13DEF47355A,1511563332.987628,49.27910835052629,-122.9162159114841,347.5107,0.0006561729,95.5286513168209,3,16,-9999,139938.2568615417,-0.3802947998046875,-0.2811737060546875,-1.188583374023438,139938.2518265417,-1.010301851138531,-0.223940422374801,-0.5669241454761439
2017-11-24 14:42:13.352 -0800,237,C4D50155-580C-4885-BACB-A13DEF47355A,1511563332.987628,49.27910835052629,-122.9162159114841,347.5107,0.0006561729,95.5286513168209,3,16,-9999,139938.2868905417,-0.37005615234375,-0.229339599609375,-1.161666870117188,139938.2818865417,-0.4537903992084878,0.1587142809565803,-0.4376649588080581
2017-11-24 14:42:13.382 -0800,238,C4D50155-580C-4885-BACB-A13DEF47355A,1511563332.987628,49.27910835052629,-122.9162159114841,347.5107,0.0006561729,95.5286513168209,3,16,-9999,139938.3169505417,-0.303619384765625,-0.2790985107421875,-1.074203491210938,139938.3119155417,-0.3400422616773504,0.1252942724371759,-0.2590994750860271
2017-11-24 14:42:13.412 -0800,239,C4D50155-580C-4885-BACB-A13DEF47355A,1511563332.987628,49.27910835052629,-122.9162159114841,347.5107,0.0006561729,95.5286513168209,3,16,-9999,139938.3470105417,-0.2938690185546875,-0.2934417724609375,-1.01971435546875,139938.3419755417,-0.4377589683945378,-0.1427768597291101,-0.3562052526491503
2017-11-24 14:42:13.442 -0800,240,C4D50155-580C-4885-BACB-A13DEF47355A,1511563332.987628,49.27910835052629,-122.9162159114841,347.5107,0.0006561729,95.5286513168209,3,16,-9999,139938.3770705417,-0.2669525146484375,-0.266143798828125,-0.9635467529296875,139938.3720355417,-0.2703931423207261,-0.05504753973193786,-0.3794882047952771
2017-11-24 14:42:13.472 -0800,241,C4D50155-580C-4885-BACB-A13DEF47355A,1511563332.987628,49.27910835052629,-122.9162159114841,347.5107,0.0006561729,95.5286513168209,3,16,-9999,139938.4071305417,-0.1972808837890625,-0.269561767578125,-0.8465118408203125,139938.4020945417,-0.02246349747870937,0.1829759448033112,-0.2786151195541278
2017-11-24 14:42:13.502 -0800,242,C4D50155-580C-4885-BACB-A13DEF47355A,1511563332.987628,49.27910835052629,-122.9162159114841,347.5107,0.0006561729,95.5286513168209,3,16,-9999,139938.4371905417,-0.1203765869140625,-0.3050079345703125,-0.721588134765625,139938.4321545417,0.07779652807950371,0.2177493717886938,-0.2671065352194593
2017-11-24 14:42:13.532 -0800,243,C4D50155-580C-4885-BACB-A13DEF47355A,1511563332.987628,49.27910835052629,-122.9162159114841,347.5107,0.0006561729,95.5286513168209,3,16,-9999,139938.4672495417,-0.0686187744140625,-0.337005615234375,-0.6698760986328125,139938.4622145417,-0.05802095908901132,0.02924470456237813,-0.3030405678078985
2017-11-24 14:42:13.562 -0800,244,C4D50155-580C-4885-BACB-A13DEF47355A,1511563332.987628,49.27910835052629,-122.9162159114841,347.5107,0.0006561729,95.5286513168209,3,16,-9999,139938.4973095417,-0.0755157470703125,-0.3282928466796875,-0.7053070068359375,139938.4922745417,-0.09258639319325876,-0.2008556094137761,-0.3446481987826425
2017-11-24 14:42:13.593 -0800,245,C4D50155-580C-4885-BACB-A13DEF47355A,1511563332.987628,49.27910835052629,-122.9162159114841,347.5107,0.0006561729,95.5286513168209,3,16,-9999,139938.52737475,-0.1026611328125,-0.315093994140625,-0.7918853759765625,139938.52233975,-0.04724634195076874,-0.2732035762190868,-0.2812372679634198
2017-11-24 14:42:13.629 -0800,246,C4D50155-580C-4885-BACB-A13DEF47355A,1511563332.987628,49.27910835052629,-122.9162159114841,347.5107,0.0006561729,95.5286513168209,3,16,-9999,139938.55743475,-0.13116455078125,-0.3174896240234375,-0.8627777099609375,139938.55239875,0.07232852572935303,-0.1506081512305971,-0.1404742906506276
2017-11-24 14:42:13.653 -0800,247,C4D50155-580C-4885-BACB-A13DEF47355A,1511563332.987628,49.27910835052629,-122.9162159114841,347.5107,0.0006561729,95.5286513168209,3,16,-9999,139938.58749475,-0.1500244140625,-0.3368377685546875,-0.9246826171875,139938.58245875,0.2827821677117747,-0.04516854366828892,-0.01402580419701132
2017-11-24 14:42:13.683 -0800,248,C4D50155-580C-4885-BACB-A13DEF47355A,1511563332.987628,49.27910835052629,-122.9162159114841,347.5107,0.0006561729,95.5286513168209,3,16,-9999,139938.61755375,-0.173004150390625,-0.3651123046875,-0.977142333984375,139938.61251875,0.3031409689809945,-0.1131686336779362,0.0180919185493443
2017-11-24 14:42:13.713 -0800,249,C4D50155-580C-4885-BACB-A13DEF47355A,1511563332.987628,49.27910835052629,-122.9162159114841,347.5107,0.0006561729,95.5286513168209,3,16,-9999,139938.64761375,-0.2069854736328125,-0.3769683837890625,-1.04522705078125,139938.64257875,0.2363872383615043,-0.1925257741562263,-0.02800100833331113
2017-11-24 14:42:13.743 -0800,250,C4D50155-580C-4885-BACB-A13DEF47355A,1511563332.987628,49.27910835052629,-122.9162159114841,347.5107,0.0006561729,95.5286513168209,3,16,-9999,139938.67767375,-0.26361083984375,-0.362518310546875,-1.109817504882812,139938.67263875,0.0924060971874604,-0.1359913915876972,-0.01563648402429124
2017-11-24 14:42:13.773 -0800,251,C4D50155-580C-4885-BACB-A13DEF47355A,1511563332.987628,49.27910835052629,-122.9162159114841,347.5107,0.0006561729,95.5286513168209,3,16,-9999,139938.70773375,-0.270355224609375,-0.4008941650390625,-1.115737915039062,139938.70269775,0.03689809690304784,0.229050495874445,0.03101304352619074
2017-11-24 14:42:13.803 -0800,252,C4D50155-580C-4885-BACB-A13DEF47355A,1511563332.987628,49.27910835052629,-122.9162159114841,347.5107,0.0006561729,95.5286513168209,3,16,-9999,139938.73779375,-0.20794677734375,-0.438812255859375,-1.1357421875,139938.73275775,-0.1487474005769588,0.2379475844441818,0.03292093213112351
2017-11-24 14:42:13.833 -0800,253,C4D50155-580C-4885-BACB-A13DEF47355A,1511563332.987628,49.27910835052629,-122.9162159114841,347.5107,0.0006561729,95.5286513168209,3,16,-9999,139938.76785275,-0.2215576171875,-0.3638916015625,-1.187042236328125,139938.76281775,-0.0243266449773288,-0.09325884136850378,-0.03683418103688595
2017-11-24 14:42:13.869 -0800,254,C4D50155-580C-4885-BACB-A13DEF47355A,1511563332.987628,49.27910835052629,-122.9162159114841,347.5107,0.0006561729,95.5286513168209,3,16,-9999,139938.79791275,-0.232452392578125,-0.2402496337890625,-1.149826049804688,139938.79287775,0.3199098291007874,-0.006027266179067332,0.008025169628844777
2017-11-24 14:42:13.893 -0800,255,C4D50155-580C-4885-BACB-A13DEF47355A,1511563332.987628,49.27910835052629,-122.9162159114841,347.5107,0.0006561729,95.5286513168209,3,16,-9999,139938.82797275,-0.1768646240234375,-0.228424072265625,-1.047317504882812,139938.82293775,0.3840797608306827,0.1664584870904217,0.2138225407613719
2017-11-24 14:42:13.923 -0800,256,C4D50155-580C-4885-BACB-A13DEF47355A,1511563332.987628,49.27910835052629,-122.9162159114841,347.5107,0.0006561729,95.5286513168209,3,16,-9999,139938.85803275,-0.1336669921875,-0.2496795654296875,-0.9797821044921875,139938.85299775,0.2149296168265179,0.03201066367053443,0.2614206862921402
2017-11-24 14:42:13.953 -0800,257,C4D50155-580C-4885-BACB-A13DEF47355A,1511563332.987628,49.27910835052629,-122.9162159114841,347.5107,0.0006561729,95.5286513168209,3,16,-9999,139938.88809275,-0.1544342041015625,-0.2260894775390625,-0.944732666015625,139938.88305675,0.1429603515282166,0.009945308774791908,0.2249412383124528
2017-11-24 14:42:13.983 -0800,258,C4D50155-580C-4885-BACB-A13DEF47355A,1511563332.987628,49.27910835052629,-122.9162159114841,347.5107,0.0006561729,95.5286513168209,3,16,-9999,139938.91815275,-0.1529083251953125,-0.2032470703125,-0.878204345703125,139938.91311675,0.3382837764095711,0.2841188082628855,0.3525806904055525
2017-11-24 14:42:14.013 -0800,259,C4D50155-580C-4885-BACB-A13DEF47355A,1511563332.987628,49.27910835052629,-122.9162159114841,347.5107,0.0006561729,95.5286513168209,3,16,-9999,139938.94821175,-0.13079833984375,-0.2200164794921875,-0.7751922607421875,139938.94317675,0.5511148222971065,0.396996624749785,0.4684558946993362
2017-11-24 14:42:14.043 -0800,260,C4D50155-580C-4885-BACB-A13DEF47355A,1511563332.987628,49.27910835052629,-122.9162159114841,347.5107,0.0006561729,95.5286513168209,3,16,-9999,139938.97827175,-0.105072021484375,-0.26416015625,-0.6986236572265625,139938.97323675,0.6005047426092801,0.2642553549564205,0.4711755148045251
2017-11-24 14:42:14.073 -0800,261,C4D50155-580C-4885-BACB-A13DEF47355A,1511563332.987628,49.27910835052629,-122.9162159114841,347.5107,0.0006561729,95.5286513168209,3,16,-9999,139939.00833175,-0.0893402099609375,-0.3004608154296875,-0.66845703125,139939.00329675,0.4731340034701694,0.1139907515064436,0.3950762192877289
2017-11-24 14:42:14.108 -0800,262,C4D50155-580C-4885-BACB-A13DEF47355A,1511563332.987628,49.27910835052629,-122.9162159114841,347.5107,0.0006561729,95.5286513168209,3,16,-9999,139939.03839175,-0.100128173828125,-0.308074951171875,-0.6908111572265625,139939.03335575,0.3922404853590125,0.006008091419218761,0.3550339944017335
2017-11-24 14:42:14.134 -0800,263,C4D50155-580C-4885-BACB-A13DEF47355A,1511563332.987628,49.27910835052629,-122.9162159114841,347.5107,0.0006561729,95.5286513168209,3,16,-9999,139939.06845175,-0.1145477294921875,-0.321075439453125,-0.7262115478515625,139939.06341575,0.3108340424219064,-0.02026532431495796,0.3087983220846498
2017-11-24 14:42:14.164 -0800,264,C4D50155-580C-4885-BACB-A13DEF47355A,1511563332.987628,49.27910835052629,-122.9162159114841,347.5107,0.0006561729,95.5286513168209,3,16,-9999,139939.09851075,-0.113067626953125,-0.3382110595703125,-0.770355224609375,139939.09347575,0.1298924863753068,0.0407951005261608,0.1918051227652509
2017-11-24 14:42:14.194 -0800,265,C4D50155-580C-4885-BACB-A13DEF47355A,1511563332.987628,49.27910835052629,-122.9162159114841,347.5107,0.0006561729,95.5286513168209,3,16,-9999,139939.12857075,-0.124603271484375,-0.3376007080078125,-0.82080078125,139939.12353575,0.006515689922987864,-0.05214416151153347,0.09039354635168752
2017-11-24 14:42:14.223 -0800,266,C4D50155-580C-4885-BACB-A13DEF47355A,1511563333.987607,49.27910799476382,-122.9162158252032,347.5183,0.002756866,108.9445157147491,3,16,-9999,139939.15863075,-0.1738739013671875,-0.338348388671875,-0.8825836181640625,139939.15359575,-0.06161409603174623,-0.1124328022687473,0.06559152711977957
2017-11-24 14:42:14.254 -0800,267,C4D50155-580C-4885-BACB-A13DEF47355A,1511563333.987607,49.27910799476382,-122.9162158252032,347.5183,0.002756866,108.9445157147491,3,16,-9999,139939.18865975,-0.2330780029296875,-0.35638427734375,-0.947296142578125,139939.18362475,-0.3304956281177434,-0.103180980641812,-0.04251683417089702
2017-11-24 14:42:14.284 -0800,268,C4D50155-580C-4885-BACB-A13DEF47355A,1511563333.987607,49.27910799476382,-122.9162158252032,347.5183,0.002756866,108.9445157147491,3,16,-9999,139939.21871975,-0.2830657958984375,-0.3747711181640625,-1.021652221679688,139939.21368475,-0.6465539936500582,-0.0003419498839661742,-0.2235904830075646
2017-11-24 14:42:14.314 -0800,269,C4D50155-580C-4885-BACB-A13DEF47355A,1511563333.987607,49.27910799476382,-122.9162158252032,347.5183,0.002756866,108.9445157147491,3,16,-9999,139939.24877975,-0.3050079345703125,-0.4054718017578125,-1.0836181640625,139939.24374475,-0.6978669825853779,0.1569845578285738,-0.3411461419491883
2017-11-24 14:42:14.349 -0800,270,C4D50155-580C-4885-BACB-A13DEF47355A,1511563333.987607,49.27910799476382,-122.9162158252032,347.5183,0.002756866,108.9445157147491,3,16,-9999,139939.27883975,-0.3333740234375,-0.4212188720703125,-1.158660888671875,139939.27380375,-0.8131027619014336,-0.01015862797810725,-0.4978891510668919
2017-11-24 14:42:14.374 -0800,271,C4D50155-580C-4885-BACB-A13DEF47355A,1511563333.987607,49.27910799476382,-122.9162158252032,347.5183,0.002756866,108.9445157147491,3,16,-9999,139939.30889975,-0.3748321533203125,-0.3347320556640625,-1.156265258789062,139939.30386375,-0.5635834762047486,0.09028595464364832,-0.6281017494052262
2017-11-24 14:42:14.404 -0800,272,C4D50155-580C-4885-BACB-A13DEF47355A,1511563333.987607,49.27910799476382,-122.9162158252032,347.5183,0.002756866,108.9445157147491,3,16,-9999,139939.33895875,-0.292938232421875,-0.2931671142578125,-1.075393676757812,139939.33392375,-0.2638806481910463,0.1806494072750179,-0.4862143854802026
2017-11-24 14:42:14.434 -0800,273,C4D50155-580C-4885-BACB-A13DEF47355A,1511563333.987607,49.27910799476382,-122.9162158252032,347.5183,0.002756866,108.9445157147491,3,16,-9999,139939.36901875,-0.252960205078125,-0.275421142578125,-1.022598266601562,139939.36398375,-0.3876081829589287,-0.04964345324794906,-0.2752898966170548
2017-11-24 14:42:14.464 -0800,274,C4D50155-580C-4885-BACB-A13DEF47355A,1511563333.987607,49.27910799476382,-122.9162158252032,347.5183,0.002756866,108.9445157147491,3,16,-9999,139939.39907875,-0.254302978515625,-0.250396728515625,-1.005584716796875,139939.39404375,-0.3907573709479474,-0.2384988587898282,-0.2747402201680625
2017-11-24 14:42:14.494 -0800,275,C4D50155-580C-4885-BACB-A13DEF47355A,1511563333.987607,49.27910799476382,-122.9162158252032,347.5183,0.002756866,108.9445157147491,3,16,-9999,139939.42913875,-0.238128662109375,-0.23394775390625,-0.9532623291015625,139939.42410275,-0.09462584195604144,-0.1638946619090024,-0.2286733922640898
2017-11-24 14:42:14.524 -0800,276,C4D50155-580C-4885-BACB-A13DEF47355A,1511563333.987607,49.27910799476382,-122.9162158252032,347.5183,0.002756866,108.9445157147491,3,16,-9999,139939.45919875,-0.181365966796875,-0.25396728515625,-0.812591552734375,139939.45416275,0.1418114638339564,0.1665287945431998,-0.1703304569992879
2017-11-24 14:42:14.554 -0800,277,C4D50155-580C-4885-BACB-A13DEF47355A,1511563333.987607,49.27910799476382,-122.9162158252032,347.5183,0.002756866,108.9445157147491,3,16,-9999,139939.48925875,-0.11077880859375,-0.285675048828125,-0.670745849609375,139939.48422275,0.1706055615398931,0.2980596576211233,-0.1886242431592602
2017-11-24 14:42:14.584 -0800,278,C4D50155-580C-4885-BACB-A13DEF47355A,1511563333.987607,49.27910799476382,-122.9162158252032,347.5183,0.002756866,108.9445157147491,3,16,-9999,139939.51930225,-0.0670928955078125,-0.3187255859375,-0.618194580078125,139939.51426725,0.02748408876572675,0.04701091851040574,-0.2503685677683113
2017-11-24 14:42:14.614 -0800,279,C4D50155-580C-4885-BACB-A13DEF47355A,1511563333.987607,49.27910799476382,-122.9162158252032,347.5183,0.002756866,108.9445157147491,3,16,-9999,139939.54936225,-0.0742645263671875,-0.3289642333984375,-0.658111572265625,139939.54432725,-0.1088481874415006,-0.1923555981625703,-0.3289754957675262
2017-11-24 14:42:14.644 -0800,280,C4D50155-580C-4885-BACB-A13DEF47355A,1511563333.987607,49.27910799476382,-122.9162158252032,347.5183,0.002756866,108.9445157147491,3,16,-9999,139939.57942225,-0.104034423828125,-0.31939697265625,-0.744781494140625,139939.57438725,-0.1805633871718084,-0.2559343081304679,-0.2794055457656633
2017-11-24 14:42:14.674 -0800,281,C4D50155-580C-4885-BACB-A13DEF47355A,1511563333.987607,49.27910799476382,-122.9162158252032,347.5183,0.002756866,108.9445157147491,3,16,-9999,139939.60948225,-0.13043212890625,-0.3292388916015625,-0.843994140625,139939.60444625,-0.1932837098024628,-0.2062237432230489,-0.159343319606057
2017-11-24 14:42:14.704 -0800,282,C4D50155-580C-4885-BACB-A13DEF47355A,1511563333.987607,49.27910799476382,-122.9162158252032,347.5183,0.002756866,108.9445157147491,3,16,-9999,139939.63954225,-0.14288330078125,-0.359832763671875,-0.9345550537109375,139939.63450625,-0.1801205034825282,-0.06746079988890619,-0.02901620534084933
2017-11-24 14:42:14.735 -0800,283,C4D50155-580C-4885-BACB-A13DEF47355A,1511563333.987607,49.27910799476382,-122.9162158252032,347.5183,0.002756866,108.9445157147491,3,16,-9999,139939.66960125,-0.1535797119140625,-0.3884735107421875,-1.016204833984375,139939.66456625,-0.1066273774084835,-0.06780514661785343,0.08826461537627818
2017-11-24 14:42:14.765 -0800,284,C4D50155-580C-4885-BACB-A13DEF47355A,1511563333.987607,49.27910799476382,-122.9162158252032,347.5183,0.002756866,108.9445157147491,3,16,-9999,139939.69966125,-0.18853759765625,-0.40838623046875,-1.081253051757812,139939.69462625,-0.03119493742864316,-0.2060431809011415,0.1775971583496781
2017-11-24 14:42:14.795 -0800,285,C4D50155-580C-4885-BACB-A13DEF47355A,1511563333.987607,49.27910799476382,-122.9162158252032,347.5183,0.002756866,108.9445157147491,3,16,-9999,139939.72972125,-0.2462615966796875,-0.42120361328125,-1.13031005859375,139939.72468625,-0.01587270641298127,-0.2644630815214467,0.1968827056995959
2017-11-24 14:42:14.829 -0800,286,C4D50155-580C-4885-BACB-A13DEF47355A,1511563333.987607,49.27910799476382,-122.9162158252032,347.5183,0.002756866,108.9445157147491,3,16,-9999,139939.75978125,-0.2652130126953125,-0.4516754150390625,-1.187576293945312,139939.75474525,-0.2438507473164514,-0.07179509456301016,0.1208148354836627
2017-11-24 14:42:14.855 -0800,287,C4D50155-580C-4885-BACB-A13DEF47355A,1511563333.987607,49.27910799476382,-122.9162158252032,347.5183,0.002756866,108.9445157147491,3,16,-9999,139939.78984125,-0.256317138671875,-0.389862060546875,-1.279891967773438,139939.78480525,-0.4628986764526678,-0.1188891036994264,0.01349157408234142
2017-11-24 14:42:14.885 -0800,288,C4D50155-580C-4885-BACB-A13DEF47355A,1511563333.987607,49.27910799476382,-122.9162158252032,347.5183,0.002756866,108.9445157147491,3,16,-9999,139939.81990025,-0.2593536376953125,-0.2442474365234375,-1.2825927734375,139939.81486525,0.1349359808476988,-0.138304346994431,0.04682795934351729
2017-11-24 14:42:14.915 -0800,289,C4D50155-580C-4885-BACB-A13DEF47355A,1511563333.987607,49.27910799476382,-122.9162158252032,347.5183,0.002756866,108.9445157147491,3,16,-9999,139939.84996025,-0.20831298828125,-0.2046051025390625,-1.151931762695312,139939.84492525,0.6175601588623656,0.149931441997608,0.2744643166791302
2017-11-24 14:42:14.945 -0800,290,C4D50155-580C-4885-BACB-A13DEF47355A,1511563333.987607,49.27910799476382,-122.9162158252032,347.5183,0.002756866,108.9445157147491,3,16,-9999,139939.88002025,-0.1539306640625,-0.2498016357421875,-1.0093994140625,139939.87498525,0.5881716436011232,0.2515936218697478,0.4432655865804947
2017-11-24 14:42:14.975 -0800,291,C4D50155-580C-4885-BACB-A13DEF47355A,1511563333.987607,49.27910799476382,-122.9162158252032,347.5183,0.002756866,108.9445157147491,3,16,-9999,139939.91008025,-0.1167755126953125,-0.2682952880859375,-0.9215545654296875,139939.90504525,0.4322936292054772,0.0865684480780067,0.3474604968937661
2017-11-24 14:42:15.005 -0800,292,C4D50155-580C-4885-BACB-A13DEF47355A,1511563333.987607,49.27910799476382,-122.9162158252032,347.5183,0.002756866,108.9445157147491,3,16,-9999,139939.94014025,-0.1083831787109375,-0.2307891845703125,-0.8761444091796875,139939.93510425,0.251701213577787,0.06582135792185341,0.3004684868271
2017-11-24 14:42:15.035 -0800,293,C4D50155-580C-4885-BACB-A13DEF47355A,1511563333.987607,49.27910799476382,-122.9162158252032,347.5183,0.002756866,108.9445157147491,3,16,-9999,139939.97020025,-0.10791015625,-0.197784423828125,-0.82659912109375,139939.96516425,0.4002102612371836,0.2880560256184587,0.4622134451041904
2017-11-24 14:42:15.065 -0800,294,C4D50155-580C-4885-BACB-A13DEF47355A,1511563333.987607,49.27910799476382,-122.9162158252032,347.5183,0.002756866,108.9445157147491,3,16,-9999,139940.00025925,-0.0911712646484375,-0.220611572265625,-0.75836181640625,139939.99522425,0.5746755421449286,0.3564787592931015,0.5634465897247185
2017-11-24 14:42:15.096 -0800,295,C4D50155-580C-4885-BACB-A13DEF47355A,1511563333.987607,49.27910799476382,-122.9162158252032,347.5183,0.002756866,108.9445157147491,3,16,-9999,139940.03031925,-0.0911407470703125,-0.2566070556640625,-0.7081298828125,139940.02528425,0.5959126539416565,0.2449783297219909,0.5933485624441281
2017-11-24 14:42:15.125 -0800,296,C4D50155-580C-4885-BACB-A13DEF47355A,1511563333.987607,49.27910799476382,-122.9162158252032,347.5183,0.002756866,108.9445157147491,3,16,-9999,139940.06034825,-0.108917236328125,-0.2813568115234375,-0.6890106201171875,139940.05534425,0.5599410707818472,0.1528132486131827,0.5520477276269613
2017-11-24 14:42:15.155 -0800,297,C4D50155-580C-4885-BACB-A13DEF47355A,1511563333.987607,49.27910799476382,-122.9162158252032,347.5183,0.002756866,108.9445157147491,3,16,-9999,139940.09040825,-0.118988037109375,-0.300567626953125,-0.6964263916015625,139940.08537325,0.4076263659247273,0.1617422951160004,0.4854431340285156
2017-11-24 14:42:15.185 -0800,298,C4D50155-580C-4885-BACB-A13DEF47355A,1511563333.987607,49.27910799476382,-122.9162158252032,347.5183,0.002756866,108.9445157147491,3,16,-9999,139940.12046825,-0.134521484375,-0.2973480224609375,-0.7301025390625,139940.11543325,0.2831922945196469,0.1250162384193717,0.3990368724608947
2017-11-24 14:42:15.215 -0800,299,C4D50155-580C-4885-BACB-A13DEF47355A,1511563334.987586,49.27910819212934,-122.9162165469562,347.5212,0.03164538,85.0519880734784,3,16,-9999,139940.15052825,-0.157012939453125,-0.297149658203125,-0.759918212890625,139940.14549325,0.2629642544599501,0.06991516914952321,0.3815138051203913
2017-11-24 14:42:15.245 -0800,300,C4D50155-580C-4885-BACB-A13DEF47355A,1511563334.987586,49.27910819212934,-122.9162165469562,347.5212,0.03164538,85.0519880734784,3,16,-9999,139940.18058825,-0.1845855712890625,-0.32012939453125,-0.79034423828125,139940.17555225,0.1383456259913273,0.00984224444060584,0.2982383557302676
2017-11-24 14:42:15.276 -0800,301,C4D50155-580C-4885-BACB-A13DEF47355A,1511563334.987586,49.27910819212934,-122.9162165469562,347.5212,0.03164538,85.0519880734784,3,16,-9999,139940.21064825,-0.22625732421875,-0.3320465087890625,-0.84613037109375,139940.20561225,-0.1369000621516323,-0.1102780386307641,0.1524771576836147
2017-11-24 14:42:15.306 -0800,302,C4D50155-580C-4885-BACB-A13DEF47355A,1511563334.987586,49.27910819212934,-122.9162165469562,347.5212,0.03164538,85.0519880734784,3,16,-9999,139940.24070725,-0.280853271484375,-0.32525634765625,-0.9513092041015625,139940.23567225,-0.4609950489054792,-0.2206407657841928,-0.05797435376993493
2017-11-24 14:42:15.336 -0800,303,C4D50155-580C-4885-BACB-A13DEF47355A,1511563334.987586,49.27910819212934,-122.9162165469562,347.5212,0.03164538,85.0519880734784,3,16,-9999,139940.27076725,-0.3258209228515625,-0.3336639404296875,-1.02783203125,139940.26573225,-0.6662986699719057,-0.03012274877377726,-0.1485175697748849
2017-11-24 14:42:15.366 -0800,304,C4D50155-580C-4885-BACB-A13DEF47355A,1511563334.987586,49.27910819212934,-122.9162165469562,347.5212,0.03164538,85.0519880734784,3,16,-9999,139940.30082725,-0.321441650390625,-0.3754730224609375,-1.077133178710938,139940.29579225,-0.8621448733752428,0.153024170971517,-0.2888890624074354
2017-11-24 14:42:15.396 -0800,305,C4D50155-580C-4885-BACB-A13DEF47355A,1511563334.987586,49.27910819212934,-122.9162165469562,347.5212,0.03164538,85.0519880734784,3,16,-9999,139940.33088725,-0.3097381591796875,-0.366973876953125,-1.150177001953125,139940.32585125,-1.038823773781061,-0.1443971269363143,-0.504511900065701
2017-11-24 14:42:15.426 -0800,306,C4D50155-580C-4885-BACB-A13DEF47355A,1511563334.987586,49.27910819212934,-122.9162165469562,347.5212,0.03164538,85.0519880734784,3,16,-9999,139940.36094725,-0.3415679931640625,-0.2938690185546875,-1.190811157226562,139940.35591125,-0.7294328983538692,-0.3051463292818242,-0.6023425900775438
2017-11-24 14:42:15.456 -0800,307,C4D50155-580C-4885-BACB-A13DEF47355A,1511563334.987586,49.27910819212934,-122.9162165469562,347.5212,0.03164538,85.0519880734784,3,16,-9999,139940.39100625,-0.339080810546875,-0.261871337890625,-1.151824951171875,139940.38597125,-0.2915895077527758,0.02154284268986897,-0.4764752053737828
2017-11-24 14:42:15.486 -0800,308,C4D50155-580C-4885-BACB-A13DEF47355A,1511563334.987586,49.27910819212934,-122.9162165469562,347.5212,0.03164538,85.0519880734784,3,16,-9999,139940.42106625,-0.308929443359375,-0.2722015380859375,-1.0736083984375,139940.41603125,-0.2095486998440128,0.1134498634890485,-0.3343529506406142
2017-11-24 14:42:15.516 -0800,309,C4D50155-580C-4885-BACB-A13DEF47355A,1511563334.987586,49.27910819212934,-122.9162165469562,347.5212,0.03164538,85.0519880734784,3,16,-9999,139940.45112625,-0.3025665283203125,-0.258636474609375,-1.005661010742188,139940.44609125,-0.09988292194785786,-0.1181013406489809,-0.3307576831690072
2017-11-24 14:42:15.546 -0800,310,C4D50155-580C-4885-BACB-A13DEF47355A,1511563334.987586,49.27910819212934,-122.9162165469562,347.5212,0.03164538,85.0519880734784,3,16,-9999,139940.48118625,-0.2896575927734375,-0.247833251953125,-0.9187469482421875,139940.47615025,0.09181913648320693,-0.1609777015670386,-0.3241274773191459
2017-11-24 14:42:15.576 -0800,311,C4D50155-580C-4885-BACB-A13DEF47355A,1511563334.987586,49.27910819212934,-122.9162165469562,347.5212,0.03164538,85.0519880734784,3,16,-9999,139940.5112356667,-0.2433013916015625,-0.2579345703125,-0.78497314453125,139940.5061996667,0.2098733391808935,0.1326781528755296,-0.3339992828478516
2017-11-24 14:42:15.606 -0800,312,C4D50155-580C-4885-BACB-A13DEF47355A,1511563334.987586,49.27910819212934,-122.9162165469562,347.5212,0.03164538,85.0519880734784,3,16,-9999,139940.5412956667,-0.1614227294921875,-0.2880096435546875,-0.65618896484375,139940.5362596667,0.1234580228655663,0.3430340568459455,-0.3872012519443646
2017-11-24 14:42:15.636 -0800,313,C4D50155-580C-4885-BACB-A13DEF47355A,1511563334.987586,49.27910819212934,-122.9162165469562,347.5212,0.03164538,85.0519880734784,3,16,-9999,139940.5713546667,-0.087066650390625,-0.3240203857421875,-0.6224212646484375,139940.5663196667,-0.1246894685536189,0.0518797096152886,-0.4360942263971293
2017-11-24 14:42:15.666 -0800,314,C4D50155-580C-4885-BACB-A13DEF47355A,1511563334.987586,49.27910819212934,-122.9162165469562,347.5212,0.03164538,85.0519880734784,3,16,-9999,139940.6014146667,-0.091705322265625,-0.3182373046875,-0.6779327392578125,139940.5963796667,-0.2514444848487034,-0.2851678274162677,-0.4849813418954959
2017-11-24 14:42:15.697 -0800,315,C4D50155-580C-4885-BACB-A13DEF47355A,1511563334.987586,49.27910819212934,-122.9162165469562,347.5212,0.03164538,85.0519880734784,3,16,-9999,139940.6314746667,-0.115631103515625,-0.3129730224609375,-0.7722930908203125,139940.6264396667,-0.2615991180851755,-0.3128497890509874,-0.4086626019048771
2017-11-24 14:42:15.727 -0800,316,C4D50155-580C-4885-BACB-A13DEF47355A,1511563334.987586,49.27910819212934,-122.9162165469562,347.5212,0.03164538,85.0519880734784,3,16,-9999,139940.6615346667,-0.1409149169921875,-0.3178863525390625,-0.8575897216796875,139940.6564986667,-0.1889843025386389,-0.1763638484488624,-0.2634164592130456
2017-11-24 14:42:15.757 -0800,317,C4D50155-580C-4885-BACB-A13DEF47355A,1511563334.987586,49.27910819212934,-122.9162165469562,347.5212,0.03164538,85.0519880734784,3,16,-9999,139940.6915946667,-0.154541015625,-0.338836669921875,-0.914947509765625,139940.6865586667,-0.05253591250788412,-0.02412584263113683,-0.104190318694952
2017-11-24 14:42:15.790 -0800,318,C4D50155-580C-4885-BACB-A13DEF47355A,1511563334.987586,49.27910819212934,-122.9162165469562,347.5212,0.03164538,85.0519880734784,3,16,-9999,139940.7216536667,-0.15985107421875,-0.36114501953125,-0.9649658203125,139940.7166186667,0.06109637751583483,-0.05216653206469014,0.02652774761827929
2017-11-24 14:42:15.817 -0800,319,C4D50155-580C-4885-BACB-A13DEF47355A,1511563334.987586,49.27910819212934,-122.9162165469562,347.5212,0.03164538,85.0519880734784,3,16,-9999,139940.7517136667,-0.1768951416015625,-0.394439697265625,-1.009811401367188,139940.7466786667,0.1037663434494114,-0.1447023251972374,0.1121744756430096
2017-11-24 14:42:15.847 -0800,320,C4D50155-580C-4885-BACB-A13DEF47355A,1511563334.987586,49.27910819212934,-122.9162165469562,347.5212,0.03164538,85.0519880734784,3,16,-9999,139940.7817736667,-0.221923828125,-0.4073028564453125,-1.067703247070312,139940.7767386667,0.08169646117981576,-0.2031286174041588,0.1892623365564432
2017-11-24 14:42:15.877 -0800,321,C4D50155-580C-4885-BACB-A13DEF47355A,1511563334.987586,49.27910819212934,-122.9162165469562,347.5212,0.03164538,85.0519880734784,3,16,-9999,139940.8118336667,-0.2394866943359375,-0.4358978271484375,-1.115432739257812,139940.8067976667,0.009124788842938493,-0.05546459075864426,0.1755150990094542
2017-11-24 14:42:15.907 -0800,322,C4D50155-580C-4885-BACB-A13DEF47355A,1511563334.987586,49.27910819212934,-122.9162165469562,347.5212,0.03164538,85.0519880734784,3,16,-9999,139940.8418936667,-0.24847412109375,-0.40972900390625,-1.2501220703125,139940.8368576667,-0.439813597175534,-0.1911755514835561,0.06904671231804838
2017-11-24 14:42:15.937 -0800,323,C4D50155-580C-4885-BACB-A13DEF47355A,1511563334.987586,49.27910819212934,-122.9162165469562,347.5212,0.03164538,85.0519880734784,3,16,-9999,139940.8719526667,-0.2890777587890625,-0.2712249755859375,-1.344894409179688,139940.8669176667,-0.1287481260548997,-0.3456018767689998,-0.003213370171289609
2017-11-24 14:42:15.967 -0800,324,C4D50155-580C-4885-BACB-A13DEF47355A,1511563334.987586,49.27910819212934,-122.9162165469562,347.5212,0.03164538,85.0519880734784,3,16,-9999,139940.9020126667,-0.2801361083984375,-0.199371337890625,-1.245452880859375,139940.8969776667,0.570456296029916,0.05890006856484648,0.2021184804026917
2017-11-24 14:42:15.997 -0800,325,C4D50155-580C-4885-BACB-A13DEF47355A,1511563334.987586,49.27910819212934,-122.9162165469562,347.5212,0.03164538,85.0519880734784,3,16,-9999,139940.9320426667,-0.1904296875,-0.251861572265625,-1.062896728515625,139940.9270066667,0.5771546788036833,0.3758476635851388,0.3848683228294552
2017-11-24 14:42:16.027 -0800,326,C4D50155-580C-4885-BACB-A13DEF47355A,1511563334.987586,49.27910819212934,-122.9162165469562,347.5212,0.03164538,85.0519880734784,3,16,-9999,139940.9621016667,-0.1206207275390625,-0.28582763671875,-0.9353790283203125,139940.9570666667,0.28184926238192,0.2789504115353688,0.3451440793776152
2017-11-24 14:42:16.057 -0800,327,C4D50155-580C-4885-BACB-A13DEF47355A,1511563334.987586,49.27910819212934,-122.9162165469562,347.5212,0.03164538,85.0519880734784,3,16,-9999,139940.9921616667,-0.1081085205078125,-0.25225830078125,-0.8722991943359375,139940.9871266667,0.2128041479605257,0.1188970931826966,0.3402912672392728
2017-11-24 14:42:16.087 -0800,328,C4D50155-580C-4885-BACB-A13DEF47355A,1511563334.987586,49.27910819212934,-122.9162165469562,347.5212,0.03164538,85.0519880734784,3,16,-9999,139941.0222216667,-0.1258392333984375,-0.2287750244140625,-0.8142547607421875,139941.0171866667,0.4227954651777096,0.2455120272044428,0.4965607663151604
2017-11-24 14:42:16.117 -0800,329,C4D50155-580C-4885-BACB-A13DEF47355A,1511563334.987586,49.27910819212934,-122.9162165469562,347.5212,0.03164538,85.0519880734784,3,16,-9999,139941.0522816667,-0.1114044189453125,-0.25689697265625,-0.7370452880859375,139941.0472456667,0.5478242204542046,0.3872806141448489,0.5811044130163798
2017-11-24 14:42:16.148 -0800,330,C4D50155-580C-4885-BACB-A13DEF47355A,1511563334.987586,49.27910819212934,-122.9162165469562,347.5212,0.03164538,85.0519880734784,3,16,-9999,139941.0823416667,-0.0941162109375,-0.291046142578125,-0.695526123046875,139941.0773056667,0.5092552562832411,0.3120532375689447,0.5685113894858311
2017-11-24 14:42:16.178 -0800,331,C4D50155-580C-4885-BACB-A13DEF47355A,1511563334.987586,49.27910819212934,-122.9162165469562,347.5212,0.03164538,85.0519880734784,3,16,-9999,139941.1124006667,-0.10772705078125,-0.3030242919921875,-0.6970977783203125,139941.1073656667,0.5214818288477949,0.1529802288135307,0.4992249926696757
2017-11-24 14:42:16.207 -0800,332,C4D50155-580C-4885-BACB-A13DEF47355A,1511563335.987566,49.27910943580741,-122.9162203914806,347.5172,0.2060566,89.15365327385446,3,16,-9999,139941.1424606667,-0.116180419921875,-0.3110504150390625,-0.720855712890625,139941.1374256667,0.4788848335280865,0.1892261175656181,0.4496033773426653
2017-11-24 14:42:16.238 -0800,333,C4D50155-580C-4885-BACB-A13DEF47355A,1511563335.987566,49.27910943580741,-122.9162203914806,347.5172,0.2060566,89.15365327385446,3,16,-9999,139941.1725206667,-0.12200927734375,-0.31781005859375,-0.7503509521484375,139941.1674856667,0.3591051687601376,0.2531891216788142,0.4262735535613531
2017-11-24 14:42:16.268 -0800,334,C4D50155-580C-4885-BACB-A13DEF47355A,1511563335.987566,49.27910943580741,-122.9162203914806,347.5172,0.2060566,89.15365327385446,3,16,-9999,139941.2025806667,-0.1248779296875,-0.326690673828125,-0.7738037109375,139941.1975456667,0.3141531400884721,0.2279095976634551,0.3711423905711868
2017-11-24 14:42:16.298 -0800,335,C4D50155-580C-4885-BACB-A13DEF47355A,1511563335.987566,49.27910943580741,-122.9162203914806,347.5172,0.2060566,89.15365327385446,3,16,-9999,139941.2326406667,-0.1470794677734375,-0.3418121337890625,-0.799652099609375,139941.2276046667,0.1958784276525271,0.1571267706307841,0.3432612244869292
2017-11-24 14:42:16.328 -0800,336,C4D50155-580C-4885-BACB-A13DEF47355A,1511563335.987566,49.27910943580741,-122.9162203914806,347.5172,0.2060566,89.15365327385446,3,16,-9999,139941.2627006667,-0.1910400390625,-0.3500823974609375,-0.8492889404296875,139941.2576646667,-0.01413472748559556,0.03776309162510558,0.300805110388886
2017-11-24 14:42:16.358 -0800,337,C4D50155-580C-4885-BACB-A13DEF47355A,1511563335.987566,49.27910943580741,-122.9162203914806,347.5172,0.2060566,89.15365327385446,3,16,-9999,139941.2927596667,-0.2730712890625,-0.3459014892578125,-0.9416046142578125,139941.2877246667,-0.2576805428572329,-0.1546564224036266,0.2065041740858342
2017-11-24 14:42:16.388 -0800,338,C4D50155-580C-4885-BACB-A13DEF47355A,1511563335.987566,49.27910943580741,-122.9162203914806,347.5172,0.2060566,89.15365327385446,3,16,-9999,139941.3228196667,-0.359283447265625,-0.366058349609375,-1.007125854492188,139941.3177846667,-0.4013266583661448,-0.04595710566706138,0.1052044504380542
2017-11-24 14:42:16.418 -0800,339,C4D50155-580C-4885-BACB-A13DEF47355A,1511563335.987566,49.27910943580741,-122.9162203914806,347.5172,0.2060566,89.15365327385446,3,16,-9999,139941.3528796667,-0.388427734375,-0.412689208984375,-1.055160522460938,139941.3478446667,-0.4539342099073521,0.0839502944103498,-0.1187929635840745
2017-11-24 14:42:16.448 -0800,340,C4D50155-580C-4885-BACB-A13DEF47355A,1511563335.987566,49.27910943580741,-122.9162203914806,347.5172,0.2060566,89.15365327385446,3,16,-9999,139941.3829396667,-0.3932037353515625,-0.4079437255859375,-1.105194091796875,139941.3779036667,-0.6551623955576303,-0.02968252824558716,-0.4492859285407278
2017-11-24 14:42:16.478 -0800,341,C4D50155-580C-4885-BACB-A13DEF47355A,1511563335.987566,49.27910943580741,-122.9162203914806,347.5172,0.2060566,89.15365327385446,3,16,-9999,139941.4129996667,-0.4037933349609375,-0.3099822998046875,-1.116348266601562,139941.4079636667,-0.4858636471646391,-0.09231768023926977,-0.6696465297782442
2017-11-24 14:42:16.508 -0800,342,C4D50155-580C-4885-BACB-A13DEF47355A,1511563335.987566,49.27910943580741,-122.9162203914806,347.5172,0.2060566,89.15365327385446,3,16,-9999,139941.4430586667,-0.3685302734375,-0.2572479248046875,-1.07171630859375,139941.4380236667,-0.244745835758827,0.02486886457526893,-0.6361924327968869
2017-11-24 14:42:16.538 -0800,343,C4D50155-580C-4885-BACB-A13DEF47355A,1511563335.987566,49.27910943580741,-122.9162203914806,347.5172,0.2060566,89.15365327385446,3,16,-9999,139941.4731186667,-0.3344879150390625,-0.2549896240234375,-1.0255126953125,139941.4680836667,-0.2955930378194919,-0.08024157627630546,-0.5182719207859223
2017-11-24 14:42:16.569 -0800,344,C4D50155-580C-4885-BACB-A13DEF47355A,1511563335.987566,49.27910943580741,-122.9162203914806,347.5172,0.2060566,89.15365327385446,3,16,-9999,139941.5031786667,-0.33306884765625,-0.25006103515625,-1.000411987304688,139941.4981436667,-0.3177934149825015,-0.2956420399835494,-0.4777247605572479
2017-11-24 14:42:16.598 -0800,345,C4D50155-580C-4885-BACB-A13DEF47355A,1511563335.987566,49.27910943580741,-122.9162203914806,347.5172,0.2060566,89.15365327385446,3,16,-9999,139941.533212125,-0.31103515625,-0.251953125,-0.9559478759765625,139941.528176125,-0.1431960412846886,-0.2642433707315152,-0.4488976396537943
2017-11-24 14:42:16.628 -0800,346,C4D50155-580C-4885-BACB-A13DEF47355A,1511563335.987566,49.27910943580741,-122.9162203914806,347.5172,0.2060566,89.15365327385446,3,16,-9999,139941.563272125,-0.2496795654296875,-0.2705230712890625,-0.8272857666015625,139941.558236125,0.06325353799879901,0.08957009694263501,-0.3782903149369594
2017-11-24 14:42:16.658 -0800,347,C4D50155-580C-4885-BACB-A13DEF47355A,1511563335.987566,49.27910943580741,-122.9162203914806,347.5172,0.2060566,89.15365327385446,3,16,-9999,139941.593332125,-0.1634521484375,-0.3042144775390625,-0.693145751953125,139941.588296125,0.1167734885294674,0.1721893434401632,-0.3643396118826884
2017-11-24 14:42:16.688 -0800,348,C4D50155-580C-4885-BACB-A13DEF47355A,1511563335.987566,49.27910943580741,-122.9162203914806,347.5172,0.2060566,89.15365327385446,3,16,-9999,139941.623391125,-0.1135711669921875,-0.33953857421875,-0.632720947265625,139941.618356125,0.01069019493168707,-0.04502792876273273,-0.4008568767498549
2017-11-24 14:42:16.718 -0800,349,C4D50155-580C-4885-BACB-A13DEF47355A,1511563335.987566,49.27910943580741,-122.9162203914806,347.5172,0.2060566,89.15365327385446,3,16,-9999,139941.653451125,-0.1105804443359375,-0.347991943359375,-0.6427154541015625,139941.648416125,-0.0851095684328613,-0.2102456491012865,-0.4583289583382009
2017-11-24 14:42:16.749 -0800,350,C4D50155-580C-4885-BACB-A13DEF47355A,1511563335.987566,49.27910943580741,-122.9162203914806,347.5172,0.2060566,89.15365327385446,3,16,-9999,139941.683511125,-0.1169586181640625,-0.3516998291015625,-0.7037200927734375,139941.678476125,-0.1282559738854531,-0.2473927515662568,-0.3890239193944148
2017-11-24 14:42:16.779 -0800,351,C4D50155-580C-4885-BACB-A13DEF47355A,1511563335.987566,49.27910943580741,-122.9162203914806,347.5172,0.2060566,89.15365327385446,3,16,-9999,139941.713571125,-0.1455230712890625,-0.3694610595703125,-0.792388916015625,139941.708535125,-0.1532662523146052,-0.2995137435763066,-0.268371004105029
2017-11-24 14:42:16.809 -0800,352,C4D50155-580C-4885-BACB-A13DEF47355A,1511563335.987566,49.27910943580741,-122.9162203914806,347.5172,0.2060566,89.15365327385446,3,16,-9999,139941.743631125,-0.168853759765625,-0.3895111083984375,-0.8859100341796875,139941.738595125,-0.01502049486415591,-0.2691864640308112,-0.1806613914999233
2017-11-24 14:42:16.839 -0800,353,C4D50155-580C-4885-BACB-A13DEF47355A,1511563335.987566,49.27910943580741,-122.9162203914806,347.5172,0.2060566,89.15365327385446,3,16,-9999,139941.773690125,-0.1719207763671875,-0.42230224609375,-0.97637939453125,139941.768655125,0.002498577734712341,-0.1834545148511984,-0.06952501604982661
2017-11-24 14:42:16.869 -0800,354,C4D50155-580C-4885-BACB-A13DEF47355A,1511563335.987566,49.27910943580741,-122.9162203914806,347.5172,0.2060566,89.15365327385446,3,16,-9999,139941.803720125,-0.185394287109375,-0.4400634765625,-1.064239501953125,139941.798684125,-0.1241240794541951,-0.1609593257555171,-0.02607980392292797
2017-11-24 14:42:16.899 -0800,355,C4D50155-580C-4885-BACB-A13DEF47355A,1511563335.987566,49.27910943580741,-122.9162203914806,347.5172,0.2060566,89.15365327385446,3,16,-9999,139941.833780125,-0.2359466552734375,-0.4293060302734375,-1.140182495117188,139941.828744125,-0.0987548069101003,-0.1229397717174369,0.05211752990063268
2017-11-24 14:42:16.929 -0800,356,C4D50155-580C-4885-BACB-A13DEF47355A,1511563335.987566,49.27910943580741,-122.9162203914806,347.5172,0.2060566,89.15365327385446,3,16,-9999,139941.863839125,-0.242462158203125,-0.45391845703125,-1.169692993164062,139941.858804125,-0.07764845632289531,0.08698709700136717,0.1221426876031762
2017-11-24 14:42:16.959 -0800,357,C4D50155-580C-4885-BACB-A13DEF47355A,1511563335.987566,49.27910943580741,-122.9162203914806,347.5172,0.2060566,89.15365327385446,3,16,-9999,139941.893899125,-0.2114105224609375,-0.4424896240234375,-1.210403442382812,139941.888864125,-0.1900812585916426,0.08941110622555729,0.08816501315150921
2017-11-24 14:42:16.989 -0800,358,C4D50155-580C-4885-BACB-A13DEF47355A,1511563335.987566,49.27910943580741,-122.9162203914806,347.5172,0.2060566,89.15365327385446,3,16,-9999,139941.923959125,-0.2196502685546875,-0.3486175537109375,-1.2269287109375,139941.918924125,0.04220950538110188,-0.02045307717180855,0.1294163131724006
2017-11-24 14:42:17.019 -0800,359,C4D50155-580C-4885-BACB-A13DEF47355A,1511563335.987566,49.27910943580741,-122.9162203914806,347.5172,0.2060566,89.15365327385446,3,16,-9999,139941.954019125,-0.2052459716796875,-0.29144287109375,-1.13604736328125,139941.948983125,0.4292781319031805,0.07500926368262678,0.2793118024952925
2017-11-24 14:42:17.049 -0800,360,C4D50155-580C-4885-BACB-A13DEF47355A,1511563335.987566,49.27910943580741,-122.9162203914806,347.5172,0.2060566,89.15365327385446,3,16,-9999,139941.984079125,-0.156036376953125,-0.305633544921875,-1.019241333007812,139941.979043125,0.4226961292690496,0.1608298961265393,0.3676690958775054
2017-11-24 14:42:17.079 -0800,361,C4D50155-580C-4885-BACB-A13DEF47355A,1511563335.987566,49.27910943580741,-122.9162203914806,347.5172,0.2060566,89.15365327385446,3,16,-9999,139942.014138125,-0.136077880859375,-0.3038787841796875,-0.953094482421875,139942.009103125,0.1841200388076092,0.09767382982363713,0.3833141020172849
2017-11-24 14:42:17.109 -0800,362,C4D50155-580C-4885-BACB-A13DEF47355A,1511563335.987566,49.27910943580741,-122.9162203914806,347.5172,0.2060566,89.15365327385446,3,16,-9999,139942.044198125,-0.15545654296875,-0.25762939453125,-0.9072418212890625,139942.039163125,0.2152563866922706,0.1559515176417321,0.3893477597829684
2017-11-24 14:42:17.139 -0800,363,C4D50155-580C-4885-BACB-A13DEF47355A,1511563335.987566,49.27910943580741,-122.9162203914806,347.5172,0.2060566,89.15365327385446,3,16,-9999,139942.074258125,-0.1403961181640625,-0.2351837158203125,-0.8168182373046875,139942.069223125,0.456182450499597,0.372730966161419,0.5155645512217478
2017-11-24 14:42:17.169 -0800,364,C4D50155-580C-4885-BACB-A13DEF47355A,1511563335.987566,49.27910943580741,-122.9162203914806,347.5172,0.2060566,89.15365327385446,3,16,-9999,139942.104318125,-0.119659423828125,-0.2576446533203125,-0.720977783203125,139942.099282125,0.6044283778432938,0.428521527837489,0.5896947054285394
2017-11-24 14:42:17.199 -0800,365,C4D50155-580C-4885-BACB-A13DEF47355A,1511563335.987566,49.27910943580741,-122.9162203914806,347.5172,0.2060566,89.15365327385446,3,16,-9999,139942.134378125,-0.1152801513671875,-0.2828521728515625,-0.6638641357421875,139942.129342125,0.5976429097018809,0.2853292149783265,0.5700805240001059
2017-11-24 14:42:17.229 -0800,366,C4D50155-580C-4885-BACB-A13DEF47355A,1511563336.987545,49.27911116321479,-122.9162234702936,347.493,0.06183039,80.85274679061953,3,16,-9999,139942.164437125,-0.13134765625,-0.29986572265625,-0.655914306640625,139942.159402125,0.537987834967997,0.1169244897632749,0.4632835032301843
2017-11-24 14:42:17.259 -0800,367,C4D50155-580C-4885-BACB-A13DEF47355A,1511563336.987545,49.27911116321479,-122.9162234702936,347.493,0.06183039,80.85274679061953,3,16,-9999,139942.194497125,-0.14703369140625,-0.30584716796875,-0.6646575927734375,139942.189462125,0.3875674365942505,0.1195522308108561,0.3520310139565601
2017-11-24 14:42:17.289 -0800,368,C4D50155-580C-4885-BACB-A13DEF47355A,1511563336.987545,49.27911116321479,-122.9162234702936,347.493,0.06183039,80.85274679061953,3,16,-9999,139942.224557125,-0.1495208740234375,-0.316253662109375,-0.692535400390625,139942.219522125,0.2006611986542004,0.1539757184290023,0.3156905829857749
