loggingTime(txt),loggingSample(N),identifierForVendor(txt),locationTimestamp_since1970(s),locationLatitude(WGS84),locationLongitude(WGS84),locationAltitude(m),locationSpeed(m/s),locationCourse(°),locationVerticalAccuracy(m),locationHorizontalAccuracy(m),locationFloor(Z),accelerometerTimestamp_sinceReboot(s),accelerometerAccelerationX(G),accelerometerAccelerationY(G),accelerometerAccelerationZ(G),gyroTimestamp_sinceReboot(s),gyroRotationX(rad/s),gyroRotationY(rad/s),gyroRotationZ(rad/s)
2017-11-24 14:41:00.383 -0800,1,C4D50155-580C-4885-BACB-A13DEF47355A,1511563259.989141,49.27911127014284,-122.9164287681426,346.3915,0.3478027,166.0659136681319,3,16,-9999,139865.3014822917,-0.0147247314453125,-0.1085662841796875,-0.9916534423828125,139865.2724602917,-0.02925136246510333,0.03087136335619853,-0.02386352126376402
2017-11-24 14:41:00.397 -0800,2,C4D50155-580C-4885-BACB-A13DEF47355A,1511563259.989141,49.27911127014284,-122.9164287681426,346.3915,0.3478027,166.0659136681319,3,16,-9999,139865.3315422917,-0.015380859375,-0.1036224365234375,-0.9945831298828125,139865.3025202917,-0.02450374518981907,0.0170263877972036,0.002778742281388677
2017-11-24 14:41:00.436 -0800,3,C4D50155-580C-4885-BACB-A13DEF47355A,1511563259.989141,49.27911127014284,-122.9164287681426,346.3915,0.3478027,166.0659136681319,3,16,-9999,139865.3616022917,-0.0179443359375,-0.107818603515625,-0.98651123046875,139865.3325802917,-0.05118169509357883,-0.01261060039374321,-0.005230448380915624
2017-11-24 14:41:00.457 -0800,4,C4D50155-580C-4885-BACB-A13DEF47355A,1511563259.989141,49.27911127014284,-122.9164287681426,346.3915,0.3478027,166.0659136681319,3,16,-9999,139865.3916622917,-0.0159149169921875,-0.104583740234375,-0.9989471435546875,139865.3626402917,-0.04257808687596885,0.03191958356125372,0.00354413477867745
2017-11-24 14:41:00.487 -0800,5,C4D50155-580C-4885-BACB-A13DEF47355A,1511563259.989141,49.27911127014284,-122.9164287681426,346.3915,0.3478027,166.0659136681319,3,16,-9999,139865.4217222917,-0.01275634765625,-0.1048736572265625,-1.005767822265625,139865.3926992917,-0.031794681306129,0.03084419911307972,-0.002640257904704557
2017-11-24 14:41:00.517 -0800,6,C4D50155-580C-4885-BACB-A13DEF47355A,1511563259.989141,49.27911127014284,-122.9164287681426,346.3915,0.3478027,166.0659136681319,3,16,-9999,139865.451763,-0.0158538818359375,-0.10711669921875,-0.9933319091796875,139865.4227592917,-0.02458949897691962,-0.01479732196480727,-0.001553688179952227
2017-11-24 14:41:00.547 -0800,7,C4D50155-580C-4885-BACB-A13DEF47355A,1511563259.989141,49.27911127014284,-122.9164287681426,346.3915,0.3478027,166.0659136681319,3,16,-9999,139865.481823,-0.0216064453125,-0.10540771484375,-0.9849853515625,139865.452801,-0.01724636490324414,-0.01482368725959906,0.004963067007471668
2017-11-24 14:41:00.577 -0800,8,C4D50155-580C-4885-BACB-A13DEF47355A,1511563259.989141,49.27911127014284,-122.9164287681426,346.3915,0.3478027,166.0659136681319,3,16,-9999,139865.511883,-0.023101806640625,-0.10418701171875,-0.9904937744140625,139865.48283,-0.018048242707467,0.01595579703899174,-0.0002950782487807796
2017-11-24 14:41:00.607 -0800,9,C4D50155-580C-4885-BACB-A13DEF47355A,1511563259.989141,49.27911127014284,-122.9164287681426,346.3915,0.3478027,166.0659136681319,3,16,-9999,139865.541943,-0.022125244140625,-0.0987396240234375,-0.98687744140625,139865.51289,-0.03588769358547178,0.01707991733511419,-0.01551131545305751
2017-11-24 14:41:00.637 -0800,10,C4D50155-580C-4885-BACB-A13DEF47355A,1511563259.989141,49.27911127014284,-122.9164287681426,346.3915,0.3478027,166.0659136681319,3,16,-9999,139865.572003,-0.0259552001953125,-0.097808837890625,-0.985198974609375,139865.54295,-0.03744857230036722,0.01288703651489343,-0.04639226618918033
2017-11-24 14:41:00.678 -0800,11,C4D50155-580C-4885-BACB-A13DEF47355A,1511563259.989141,49.27911127014284,-122.9164287681426,346.3915,0.3478027,166.0659136681319,3,16,-9999,139865.602062,-0.02337646484375,-0.096832275390625,-0.987335205078125,139865.57301,-0.04442072803419467,0.04051706650835652,-0.06453425216701812
2017-11-24 14:41:00.697 -0800,12,C4D50155-580C-4885-BACB-A13DEF47355A,1511563259.989141,49.27911127014284,-122.9164287681426,346.3915,0.3478027,166.0659136681319,3,16,-9999,139865.632122,-0.025299072265625,-0.1043243408203125,-0.989501953125,139865.60307,-0.02291543591569581,0.05002774739324749,-0.07049493931883347
2017-11-24 14:41:00.727 -0800,13,C4D50155-580C-4885-BACB-A13DEF47355A,1511563259.989141,49.27911127014284,-122.9164287681426,346.3915,0.3478027,166.0659136681319,3,16,-9999,139865.662182,-0.020416259765625,-0.10662841796875,-0.9899444580078125,139865.633129,-0.0178770014493749,0.05635621709160279,-0.05337028087740595
2017-11-24 14:41:00.764 -0800,14,C4D50155-580C-4885-BACB-A13DEF47355A,1511563259.989141,49.27911127014284,-122.9164287681426,346.3915,0.3478027,166.0659136681319,3,16,-9999,139865.692242,-0.01727294921875,-0.1015625,-0.9895172119140625,139865.663189,-0.01494379582476163,0.06799449737135807,-0.03627172141466121
2017-11-24 14:41:00.788 -0800,15,C4D50155-580C-4885-BACB-A13DEF47355A,1511563259.989141,49.27911127014284,-122.9164287681426,346.3915,0.3478027,166.0659136681319,3,16,-9999,139865.722302,-0.01580810546875,-0.10162353515625,-0.9954833984375,139865.693249,-0.0103213471207111,0.08498173670053751,-0.04997102206202881
2017-11-24 14:41:00.818 -0800,16,C4D50155-580C-4885-BACB-A13DEF47355A,1511563259.989141,49.27911127014284,-122.9164287681426,346.3915,0.3478027,166.0659136681319,3,16,-9999,139865.752362,-0.01336669921875,-0.1006317138671875,-0.991668701171875,139865.723309,0.02506647112815281,0.08597802526433614,-0.05888622012717807
2017-11-24 14:41:00.848 -0800,17,C4D50155-580C-4885-BACB-A13DEF47355A,1511563259.989141,49.27911127014284,-122.9164287681426,346.3915,0.3478027,166.0659136681319,3,16,-9999,139865.782421,-0.00408935546875,-0.10211181640625,-0.99530029296875,139865.753369,0.02562200653154334,0.09026358409049165,-0.08651704906896818
2017-11-24 14:41:00.878 -0800,18,C4D50155-580C-4885-BACB-A13DEF47355A,1511563259.989141,49.27911127014284,-122.9164287681426,346.3915,0.3478027,166.0659136681319,3,16,-9999,139865.812481,0.0045928955078125,-0.100006103515625,-1.002899169921875,139865.783428,0.01280607641775502,0.09877557956660292,-0.08354283076356768
2017-11-24 14:41:00.921 -0800,19,C4D50155-580C-4885-BACB-A13DEF47355A,1511563259.989141,49.27911127014284,-122.9164287681426,346.3915,0.3478027,166.0659136681319,3,16,-9999,139865.84251,0.008331298828125,-0.0984649658203125,-0.9925079345703125,139865.813488,0.007003314718581372,0.04466201042895585,-0.07420898377505797
2017-11-24 14:41:00.938 -0800,20,C4D50155-580C-4885-BACB-A13DEF47355A,1511563259.989141,49.27911127014284,-122.9164287681426,346.3915,0.3478027,166.0659136681319,3,16,-9999,139865.87257,-0.0001678466796875,-0.1109771728515625,-0.9813690185546875,139865.843548,0.0003781688747912518,-0.00200615924915669,-0.07550754112258061
2017-11-24 14:41:00.968 -0800,21,C4D50155-580C-4885-BACB-A13DEF47355A,1511563259.989141,49.27911127014284,-122.9164287681426,346.3915,0.3478027,166.0659136681319,3,16,-9999,139865.90263,0.0068206787109375,-0.1045074462890625,-0.9912567138671875,139865.873608,-0.03188442983486467,0.0489523629450735,-0.04832944956610397
2017-11-24 14:41:00.998 -0800,22,C4D50155-580C-4885-BACB-A13DEF47355A,1511563259.989141,49.27911127014284,-122.9164287681426,346.3915,0.3478027,166.0659136681319,3,16,-9999,139865.93269,0.0089263916015625,-0.1060638427734375,-0.99993896484375,139865.903668,-0.01810443540646767,0.07542871155431426,-0.03631220146323041
2017-11-24 14:41:01.028 -0800,23,C4D50155-580C-4885-BACB-A13DEF47355A,1511563259.989141,49.27911127014284,-122.9164287681426,346.3915,0.3478027,166.0659136681319,3,16,-9999,139865.96275,0.003631591796875,-0.11083984375,-0.997467041015625,139865.933728,-0.00985502761383822,0.03720702358949704,-0.03199788049730205
2017-11-24 14:41:01.058 -0800,24,C4D50155-580C-4885-BACB-A13DEF47355A,1511563259.989141,49.27911127014284,-122.9164287681426,346.3915,0.3478027,166.0659136681319,3,16,-9999,139865.99281,0.0007171630859375,-0.113250732421875,-0.989288330078125,139865.963787,-0.03327539887221306,0.02241529426297893,-0.03884753082098585
2017-11-24 14:41:01.088 -0800,25,C4D50155-580C-4885-BACB-A13DEF47355A,1511563259.989141,49.27911127014284,-122.9164287681426,346.3915,0.3478027,166.0659136681319,3,16,-9999,139866.022869,0.0044097900390625,-0.11785888671875,-0.9992523193359375,139865.993847,-0.006552707862139966,0.07220655295142739,-0.02759833837649114
2017-11-24 14:41:01.118 -0800,26,C4D50155-580C-4885-BACB-A13DEF47355A,1511563259.989141,49.27911127014284,-122.9164287681426,346.3915,0.3478027,166.0659136681319,3,16,-9999,139866.052929,-0.001556396484375,-0.13232421875,-0.993377685546875,139866.023907,0.02286643375163835,0.07316529094385592,-0.003654922280024747
2017-11-24 14:41:01.161 -0800,27,C4D50155-580C-4885-BACB-A13DEF47355A,1511563260.98912,49.27911143144593,-122.9164312414203,346.4005,0.009192775,158.3497123589851,3,16,-9999,139866.082989,0.0067901611328125,-0.1361236572265625,-0.9942779541015625,139866.053967,-0.07714538519297934,0.07756669727742987,0.03811143309568794
2017-11-24 14:41:01.178 -0800,28,C4D50155-580C-4885-BACB-A13DEF47355A,1511563260.98912,49.27911143144593,-122.9164312414203,346.4005,0.009192775,158.3497123589851,3,16,-9999,139866.113049,0.0229949951171875,-0.112060546875,-1.021469116210938,139866.084027,-0.1462445617845023,0.1094718997687972,0.08902361628695075
2017-11-24 14:41:01.208 -0800,29,C4D50155-580C-4885-BACB-A13DEF47355A,1511563260.98912,49.27911143144593,-122.9164312414203,346.4005,0.009192775,158.3497123589851,3,16,-9999,139866.143109,0.0127105712890625,-0.0863800048828125,-1.0535888671875,139866.114086,-0.1767300330987483,-0.008232363561652941,0.08817619842808755
2017-11-24 14:41:01.240 -0800,30,C4D50155-580C-4885-BACB-A13DEF47355A,1511563260.98912,49.27911143144593,-122.9164312414203,346.4005,0.009192775,158.3497123589851,3,16,-9999,139866.173168,-0.0302276611328125,-0.1027679443359375,-1.026138305664062,139866.144146,-0.2494638919460114,-0.1246623043105001,0.009977799340090875
2017-11-24 14:41:01.268 -0800,31,C4D50155-580C-4885-BACB-A13DEF47355A,1511563260.98912,49.27911143144593,-122.9164312414203,346.4005,0.009192775,158.3497123589851,3,16,-9999,139866.203228,-0.006500244140625,-0.1104888916015625,-0.9766387939453125,139866.174206,-0.2568467071199291,-0.07356077036573269,-0.09106945663634963
2017-11-24 14:41:01.299 -0800,32,C4D50155-580C-4885-BACB-A13DEF47355A,1511563260.98912,49.27911143144593,-122.9164312414203,346.4005,0.009192775,158.3497123589851,3,16,-9999,139866.233288,-0.0380859375,-0.1332244873046875,-0.9477081298828125,139866.204266,-0.3624756654357419,0.1728964127095793,-0.1339042722414021
2017-11-24 14:41:01.329 -0800,33,C4D50155-580C-4885-BACB-A13DEF47355A,1511563260.98912,49.27911143144593,-122.9164312414203,346.4005,0.009192775,158.3497123589851,3,16,-9999,139866.263348,0.0124969482421875,-0.1219940185546875,-0.9732666015625,139866.234326,-0.4091651404025751,0.7085217574745669,0.05583104172463917
2017-11-24 14:41:01.359 -0800,34,C4D50155-580C-4885-BACB-A13DEF47355A,1511563260.98912,49.27911143144593,-122.9164312414203,346.4005,0.009192775,158.3497123589851,3,16,-9999,139866.293408,0.0302276611328125,-0.105499267578125,-0.91156005859375,139866.264385,-0.3507729366576067,1.189952040372551,0.1484706981396995
2017-11-24 14:41:01.404 -0800,35,C4D50155-580C-4885-BACB-A13DEF47355A,1511563260.98912,49.27911143144593,-122.9164312414203,346.4005,0.009192775,158.3497123589851,3,16,-9999,139866.323468,0.0486297607421875,0.034759521484375,-0.8773193359375,139866.294445,-1.254882837225882,1.424277193102007,0.1769936860466662
2017-11-24 14:41:01.418 -0800,36,C4D50155-580C-4885-BACB-A13DEF47355A,1511563260.98912,49.27911143144593,-122.9164312414203,346.4005,0.009192775,158.3497123589851,3,16,-9999,139866.353527,0.21160888671875,0.1160125732421875,-1.193191528320312,139866.324505,-1.822966523040646,1.674820197921719,0.2138933808463681
2017-11-24 14:41:01.449 -0800,37,C4D50155-580C-4885-BACB-A13DEF47355A,1511563260.98912,49.27911143144593,-122.9164312414203,346.4005,0.009192775,158.3497123589851,3,16,-9999,139866.383587,0.2341156005859375,0.0947418212890625,-1.214340209960938,139866.354565,-0.1408711016530494,1.451252085467311,0.3465406410532528
2017-11-24 14:41:01.479 -0800,38,C4D50155-580C-4885-BACB-A13DEF47355A,1511563260.98912,49.27911143144593,-122.9164312414203,346.4005,0.009192775,158.3497123589851,3,16,-9999,139866.413647,0.2298126220703125,0.1063385009765625,-1.079330444335938,139866.384625,0.1555672234964336,0.9544907831220674,0.05303632047671001
2017-11-24 14:41:01.509 -0800,39,C4D50155-580C-4885-BACB-A13DEF47355A,1511563260.98912,49.27911143144593,-122.9164312414203,346.4005,0.009192775,158.3497123589851,3,16,-9999,139866.443689375,0.2686309814453125,0.104461669921875,-0.95806884765625,139866.414685,-0.9064193938655921,0.3540403689990249,-0.5380853066638939
2017-11-24 14:41:01.539 -0800,40,C4D50155-580C-4885-BACB-A13DEF47355A,1511563260.98912,49.27911143144593,-122.9164312414203,346.4005,0.009192775,158.3497123589851,3,16,-9999,139866.473749375,0.3414764404296875,0.0235443115234375,-1.120269775390625,139866.444726375,-0.3804908849456919,0.4918861196537443,-0.5503662077146853
2017-11-24 14:41:01.569 -0800,41,C4D50155-580C-4885-BACB-A13DEF47355A,1511563260.98912,49.27911143144593,-122.9164312414203,346.4005,0.009192775,158.3497123589851,3,16,-9999,139866.503808375,0.2947235107421875,0.066619873046875,-1.258010864257812,139866.474786375,0.2430677779559681,-0.06507913492604833,-0.117968981542804
2017-11-24 14:41:01.599 -0800,42,C4D50155-580C-4885-BACB-A13DEF47355A,1511563260.98912,49.27911143144593,-122.9164312414203,346.4005,0.009192775,158.3497123589851,3,16,-9999,139866.533868375,0.29693603515625,-0.0031585693359375,-1.1346435546875,139866.504846375,0.06999266713724452,-2.022828507051714,0.2388951371600319
2017-11-24 14:41:01.644 -0800,43,C4D50155-580C-4885-BACB-A13DEF47355A,1511563260.98912,49.27911143144593,-122.9164312414203,346.4005,0.009192775,158.3497123589851,3,16,-9999,139866.563928375,0.2089385986328125,0,-0.90087890625,139866.534906375,0.1779042208233643,-3.393103983781857,0.4066828079505122
2017-11-24 14:41:01.659 -0800,44,C4D50155-580C-4885-BACB-A13DEF47355A,1511563260.98912,49.27911143144593,-122.9164312414203,346.4005,0.009192775,158.3497123589851,3,16,-9999,139866.593988375,0.0959625244140625,0.1160736083984375,-0.7690887451171875,139866.564966375,0.585982525185078,-2.960403157245707,-0.05267839162620336
2017-11-24 14:41:01.689 -0800,45,C4D50155-580C-4885-BACB-A13DEF47355A,1511563260.98912,49.27911143144593,-122.9164312414203,346.4005,0.009192775,158.3497123589851,3,16,-9999,139866.624048375,0.0757904052734375,0.039703369140625,-0.8823394775390625,139866.594995375,0.5258331677528754,-1.249897133349145,-0.0581714276906008
2017-11-24 14:41:01.719 -0800,46,C4D50155-580C-4885-BACB-A13DEF47355A,1511563260.98912,49.27911143144593,-122.9164312414203,346.4005,0.009192775,158.3497123589851,3,16,-9999,139866.654107375,0.0511474609375,0.0686187744140625,-0.9491729736328125,139866.625055375,0.6220087031472339,-0.3324511873061886,0.02132925717044462
2017-11-24 14:41:01.750 -0800,47,C4D50155-580C-4885-BACB-A13DEF47355A,1511563260.98912,49.27911143144593,-122.9164312414203,346.4005,0.009192775,158.3497123589851,3,16,-9999,139866.684167375,0.0131683349609375,-0.0201568603515625,-0.9406890869140625,139866.655115375,1.090066455263603,0.5470103584250764,0.116119682481853
2017-11-24 14:41:01.779 -0800,48,C4D50155-580C-4885-BACB-A13DEF47355A,1511563260.98912,49.27911143144593,-122.9164312414203,346.4005,0.009192775,158.3497123589851,3,16,-9999,139866.714227375,0.04656982421875,-0.116363525390625,-0.9925537109375,139866.685174375,1.808677598527935,0.5470670837562951,0.4208050185789844
2017-11-24 14:41:01.810 -0800,49,C4D50155-580C-4885-BACB-A13DEF47355A,1511563260.98912,49.27911143144593,-122.9164312414203,346.4005,0.009192775,158.3497123589851,3,16,-9999,139866.744287375,0.0637054443359375,-0.1462860107421875,-0.9258270263671875,139866.715234375,1.582450053408974,0.5186748570588514,0.580336889990219
2017-11-24 14:41:01.840 -0800,50,C4D50155-580C-4885-BACB-A13DEF47355A,1511563260.98912,49.27911143144593,-122.9164312414203,346.4005,0.009192775,158.3497123589851,3,16,-9999,139866.774347375,0.071807861328125,-0.2028656005859375,-0.9244232177734375,139866.745294375,0.9954264985537844,0.2274166465456814,0.3986219519630604
2017-11-24 14:41:01.882 -0800,51,C4D50155-580C-4885-BACB-A13DEF47355A,1511563260.98912,49.27911143144593,-122.9164312414203,346.4005,0.009192775,158.3497123589851,3,16,-9999,139866.804407375,0.0133056640625,-0.247283935546875,-0.897705078125,139866.775354375,0.3722401455725174,-0.313242072679556,0.3081628918485569
2017-11-24 14:41:01.900 -0800,52,C4D50155-580C-4885-BACB-A13DEF47355A,1511563260.98912,49.27911143144593,-122.9164312414203,346.4005,0.009192775,158.3497123589851,3,16,-9999,139866.834466375,0.048553466796875,-0.1866455078125,-0.865814208984375,139866.805414375,-0.3324453283517904,-0.497487546374508,0.3925376941366653
2017-11-24 14:41:01.930 -0800,53,C4D50155-580C-4885-BACB-A13DEF47355A,1511563260.98912,49.27911143144593,-122.9164312414203,346.4005,0.009192775,158.3497123589851,3,16,-9999,139866.864526375,0.0169830322265625,-0.1383819580078125,-0.79425048828125,139866.835473375,-0.7373081320133424,-0.5835087148485034,0.3380526140269522
2017-11-24 14:41:01.960 -0800,54,C4D50155-580C-4885-BACB-A13DEF47355A,1511563260.98912,49.27911143144593,-122.9164312414203,346.4005,0.009192775,158.3497123589851,3,16,-9999,139866.894586375,-0.0278167724609375,-0.127410888671875,-0.73272705078125,139866.865533375,-0.6517085419399066,-0.6175319293548107,0.2608523677155172
2017-11-24 14:41:01.990 -0800,55,C4D50155-580C-4885-BACB-A13DEF47355A,1511563260.98912,49.27911143144593,-122.9164312414203,346.4005,0.009192775,158.3497123589851,3,16,-9999,139866.924646375,-0.0662384033203125,-0.181884765625,-0.7061614990234375,139866.895593375,-0.2723124825183462,-0.1949865350034595,0.2348513933608556
2017-11-24 14:41:02.020 -0800,56,C4D50155-580C-4885-BACB-A13DEF47355A,1511563260.98912,49.27911143144593,-122.9164312414203,346.4005,0.009192775,158.3497123589851,3,16,-9999,139866.954675375,-0.1235809326171875,-0.2480926513671875,-0.8430633544921875,139866.925653375,0.05450505381788871,0.5724217089143945,0.2640135399294413
2017-11-24 14:41:02.050 -0800,57,C4D50155-580C-4885-BACB-A13DEF47355A,1511563260.98912,49.27911143144593,-122.9164312414203,346.4005,0.009192775,158.3497123589851,3,16,-9999,139866.984735375,-0.0694427490234375,-0.2961578369140625,-0.8838043212890625,139866.955713375,0.2091303172367613,0.5231146129121225,0.3656594745189316
2017-11-24 14:41:02.080 -0800,58,C4D50155-580C-4885-BACB-A13DEF47355A,1511563260.98912,49.27911143144593,-122.9164312414203,346.4005,0.009192775,158.3497123589851,3,16,-9999,139867.014795375,-0.0421600341796875,-0.3132171630859375,-0.9599761962890625,139866.985773375,0.02840101512904103,0.4495850015311437,0.1451843573545417
2017-11-24 14:41:02.122 -0800,59,C4D50155-580C-4885-BACB-A13DEF47355A,1511563260.98912,49.27911143144593,-122.9164312414203,346.4005,0.009192775,158.3497123589851,3,16,-9999,139867.044855375,-0.0490875244140625,-0.362518310546875,-1.025314331054688,139867.015832375,-0.2239372265814929,0.1809745792441166,-0.06751326416238075
2017-11-24 14:41:02.140 -0800,60,C4D50155-580C-4885-BACB-A13DEF47355A,1511563260.98912,49.27911143144593,-122.9164312414203,346.4005,0.009192775,158.3497123589851,3,16,-9999,139867.074914375,-0.0520782470703125,-0.3876190185546875,-1.031402587890625,139867.045892375,-0.4027615695614795,0.04026459883701701,-0.07328486687680048
2017-11-24 14:41:02.170 -0800,61,C4D50155-580C-4885-BACB-A13DEF47355A,1511563261.989099,49.27911008203098,-122.9164320988082,346.3891,0.0862881,158.5513395432839,3,16,-9999,139867.104974375,-0.0008697509765625,-0.3338623046875,-1.091323852539062,139867.075952375,-0.3888766465861334,0.1874828123160523,0.07728280430522742
2017-11-24 14:41:02.200 -0800,62,C4D50155-580C-4885-BACB-A13DEF47355A,1511563261.989099,49.27911008203098,-122.9164320988082,346.3891,0.0862881,158.5513395432839,3,16,-9999,139867.135034375,-0.00933837890625,-0.351318359375,-1.059829711914062,139867.106012375,-0.03133368812143628,-0.006410761376038742,0.07385158755676934
2017-11-24 14:41:02.230 -0800,63,C4D50155-580C-4885-BACB-A13DEF47355A,1511563261.989099,49.27911008203098,-122.9164320988082,346.3891,0.0862881,158.5513395432839,3,16,-9999,139867.165094375,-0.049896240234375,-0.3765716552734375,-1.001068115234375,139867.136072375,0.4676649358555827,-0.3006897955136856,0.2876229956252118
2017-11-24 14:41:02.260 -0800,64,C4D50155-580C-4885-BACB-A13DEF47355A,1511563261.989099,49.27911008203098,-122.9164320988082,346.3891,0.0862881,158.5513395432839,3,16,-9999,139867.195154375,-0.0750885009765625,-0.332794189453125,-0.946929931640625,139867.166131375,0.5165563124116933,-0.2757873751086816,0.5810538129556684
2017-11-24 14:41:02.290 -0800,65,C4D50155-580C-4885-BACB-A13DEF47355A,1511563261.989099,49.27911008203098,-122.9164320988082,346.3891,0.0862881,158.5513395432839,3,16,-9999,139867.225213375,-0.055511474609375,-0.2448577880859375,-1.007904052734375,139867.196191375,0.2515422228607093,0.01553475127065021,0.5715410015419053
2017-11-24 14:41:02.320 -0800,66,C4D50155-580C-4885-BACB-A13DEF47355A,1511563261.989099,49.27911008203098,-122.9164320988082,346.3891,0.0862881,158.5513395432839,3,16,-9999,139867.255273375,-0.0225067138671875,-0.24053955078125,-1.077438354492188,139867.226251375,0.1781721348290262,0.1325511200915329,0.4800683423165177
2017-11-24 14:41:02.362 -0800,67,C4D50155-580C-4885-BACB-A13DEF47355A,1511563261.989099,49.27911008203098,-122.9164320988082,346.3891,0.0862881,158.5513395432839,3,16,-9999,139867.285333375,-0.0025634765625,-0.2383575439453125,-1.141006469726562,139867.256311375,0.2844551655085625,0.2553079326420813,0.5355047035676072
2017-11-24 14:41:02.381 -0800,68,C4D50155-580C-4885-BACB-A13DEF47355A,1511563261.989099,49.27911008203098,-122.9164320988082,346.3891,0.0862881,158.5513395432839,3,16,-9999,139867.315393375,0.0042877197265625,-0.1600494384765625,-1.204147338867188,139867.286371375,0.375183737525382,0.4775721614267864,0.761056338401906
2017-11-24 14:41:02.411 -0800,69,C4D50155-580C-4885-BACB-A13DEF47355A,1511563261.989099,49.27911008203098,-122.9164320988082,346.3891,0.0862881,158.5513395432839,3,16,-9999,139867.345453375,-0.0221710205078125,-0.1811065673828125,-1.201446533203125,139867.316430375,0.4039839605018259,0.4000006704593944,0.7954340196493029
2017-11-24 14:41:02.463 -0800,70,C4D50155-580C-4885-BACB-A13DEF47355A,1511563261.989099,49.27911008203098,-122.9164320988082,346.3891,0.0862881,158.5513395432839,3,16,-9999,139867.375513375,0.0005950927734375,-0.189453125,-1.232833862304688,139867.346490375,0.5132230999913502,0.3518089063216475,0.927085790240716
2017-11-24 14:41:02.471 -0800,71,C4D50155-580C-4885-BACB-A13DEF47355A,1511563261.989099,49.27911008203098,-122.9164320988082,346.3891,0.0862881,158.5513395432839,3,16,-9999,139867.405572375,0.04156494140625,-0.1692047119140625,-1.167434692382812,139867.376550375,0.4269265606606406,0.05903748767709457,1.005611758142792
2017-11-24 14:41:02.501 -0800,72,C4D50155-580C-4885-BACB-A13DEF47355A,1511563261.989099,49.27911008203098,-122.9164320988082,346.3891,0.0862881,158.5513395432839,3,16,-9999,139867.435632375,0.056396484375,-0.1277618408203125,-0.976470947265625,139867.406610375,0.3111014237953503,-0.3801699740343374,1.136414512978688
2017-11-24 14:41:02.531 -0800,73,C4D50155-580C-4885-BACB-A13DEF47355A,1511563261.989099,49.27911008203098,-122.9164320988082,346.3891,0.0862881,158.5513395432839,3,16,-9999,139867.4656970417,0.06158447265625,-0.0986175537109375,-0.885955810546875,139867.436670375,0.574421742893044,-0.1134234981942567,1.16638572788644
2017-11-24 14:41:02.561 -0800,74,C4D50155-580C-4885-BACB-A13DEF47355A,1511563261.989099,49.27911008203098,-122.9164320988082,346.3891,0.0862881,158.5513395432839,3,16,-9999,139867.4957570417,0.1492919921875,-0.0296173095703125,-0.9344482421875,139867.4667350417,0.7480976628536895,0.2256389865180535,1.217208428865076
2017-11-24 14:41:02.604 -0800,75,C4D50155-580C-4885-BACB-A13DEF47355A,1511563261.989099,49.27911008203098,-122.9164320988082,346.3891,0.0862881,158.5513395432839,3,16,-9999,139867.5258170417,0.0819244384765625,-0.1295318603515625,-0.8295135498046875,139867.4967940417,0.03587038303838627,-0.7462552880115727,0.8666922209365531
2017-11-24 14:41:02.621 -0800,76,C4D50155-580C-4885-BACB-A13DEF47355A,1511563261.989099,49.27911008203098,-122.9164320988082,346.3891,0.0862881,158.5513395432839,3,16,-9999,139867.5558760417,-0.0084228515625,-0.2016754150390625,-0.686431884765625,139867.5268540417,-0.3496299079177447,-0.7038926508677912,0.7841597934905614
2017-11-24 14:41:02.651 -0800,77,C4D50155-580C-4885-BACB-A13DEF47355A,1511563261.989099,49.27911008203098,-122.9164320988082,346.3891,0.0862881,158.5513395432839,3,16,-9999,139867.5859360417,-0.0223846435546875,-0.2349700927734375,-0.6798858642578125,139867.5569140417,-0.2327730624461578,0.156184011604896,0.8819840919157881
2017-11-24 14:41:02.681 -0800,78,C4D50155-580C-4885-BACB-A13DEF47355A,1511563261.989099,49.27911008203098,-122.9164320988082,346.3891,0.0862881,158.5513395432839,3,16,-9999,139867.6159960417,-0.0406494140625,-0.2790985107421875,-0.7112884521484375,139867.5869740417,0.06164046132653801,0.8387015989314932,0.9635183665852179
2017-11-24 14:41:02.711 -0800,79,C4D50155-580C-4885-BACB-A13DEF47355A,1511563261.989099,49.27911008203098,-122.9164320988082,346.3891,0.0862881,158.5513395432839,3,16,-9999,139867.6460560417,-0.0832366943359375,-0.3080291748046875,-0.76416015625,139867.6170340417,0.1553517737642462,1.035744626928712,1.027409731665091
2017-11-24 14:41:02.741 -0800,80,C4D50155-580C-4885-BACB-A13DEF47355A,1511563261.989099,49.27911008203098,-122.9164320988082,346.3891,0.0862881,158.5513395432839,3,16,-9999,139867.6761160417,-0.1003265380859375,-0.2838134765625,-0.86138916015625,139867.6470930417,-0.1057298921211268,1.046066240365532,0.9024318427654164
2017-11-24 14:41:02.771 -0800,81,C4D50155-580C-4885-BACB-A13DEF47355A,1511563261.989099,49.27911008203098,-122.9164320988082,346.3891,0.0862881,158.5513395432839,3,16,-9999,139867.7061750417,-0.12152099609375,-0.32000732421875,-0.9661102294921875,139867.6771230417,-0.1768426848128587,0.8409314637122166,0.5496620679224683
2017-11-24 14:41:02.801 -0800,82,C4D50155-580C-4885-BACB-A13DEF47355A,1511563261.989099,49.27911008203098,-122.9164320988082,346.3891,0.0862881,158.5513395432839,3,16,-9999,139867.7362350417,-0.1527557373046875,-0.401123046875,-0.981903076171875,139867.7071830417,0.07942691529885022,0.3272348536790504,0.2872799804768096
2017-11-24 14:41:02.848 -0800,83,C4D50155-580C-4885-BACB-A13DEF47355A,1511563261.989099,49.27911008203098,-122.9164320988082,346.3891,0.0862881,158.5513395432839,3,16,-9999,139867.7662950417,-0.1745452880859375,-0.4349822998046875,-0.98846435546875,139867.7372420417,0.1970342395656214,-0.0008077367586210329,0.2397404244900231
2017-11-24 14:41:02.862 -0800,84,C4D50155-580C-4885-BACB-A13DEF47355A,1511563261.989099,49.27911008203098,-122.9164320988082,346.3891,0.0862881,158.5513395432839,3,16,-9999,139867.7963550417,-0.180267333984375,-0.4336395263671875,-0.99603271484375,139867.7673020417,0.1303550774566535,-0.06212941770267656,0.1947559052530587
2017-11-24 14:41:02.892 -0800,85,C4D50155-580C-4885-BACB-A13DEF47355A,1511563261.989099,49.27911008203098,-122.9164320988082,346.3891,0.0862881,158.5513395432839,3,16,-9999,139867.8264150417,-0.15875244140625,-0.4263916015625,-1.08441162109375,139867.7973620417,0.1015324839270529,0.04619679016516851,0.1700236608417108
2017-11-24 14:41:02.925 -0800,86,C4D50155-580C-4885-BACB-A13DEF47355A,1511563261.989099,49.27911008203098,-122.9164320988082,346.3891,0.0862881,158.5513395432839,3,16,-9999,139867.8564750417,-0.149139404296875,-0.414642333984375,-1.158187866210938,139867.8274220417,-0.05029299823781939,-0.1169045160550993,0.1966025411529196
2017-11-24 14:41:02.952 -0800,87,C4D50155-580C-4885-BACB-A13DEF47355A,1511563261.989099,49.27911008203098,-122.9164320988082,346.3891,0.0862881,158.5513395432839,3,16,-9999,139867.8865340417,-0.1684112548828125,-0.3846588134765625,-1.169143676757812,139867.8574820417,-0.3244896672273967,-0.4781194410307977,0.2066160268516175
2017-11-24 14:41:02.982 -0800,88,C4D50155-580C-4885-BACB-A13DEF47355A,1511563261.989099,49.27911008203098,-122.9164320988082,346.3891,0.0862881,158.5513395432839,3,16,-9999,139867.9165940417,-0.1947784423828125,-0.2927093505859375,-1.150924682617188,139867.8875410417,-0.5612835702873561,-0.4987139320564895,0.1415693824908682
2017-11-24 14:41:03.012 -0800,89,C4D50155-580C-4885-BACB-A13DEF47355A,1511563261.989099,49.27911008203098,-122.9164320988082,346.3891,0.0862881,158.5513395432839,3,16,-9999,139867.9466540417,-0.203826904296875,-0.156219482421875,-1.131881713867188,139867.9176010417,-0.3963313671094832,-0.2187824119755355,0.01979847217586707
2017-11-24 14:41:03.042 -0800,90,C4D50155-580C-4885-BACB-A13DEF47355A,1511563261.989099,49.27911008203098,-122.9164320988082,346.3891,0.0862881,158.5513395432839,3,16,-9999,139867.9767140417,-0.1700592041015625,-0.0447845458984375,-1.09906005859375,139867.9476610417,-0.008724249414990577,-0.0006287723333677081,-0.2671054699550233
2017-11-24 14:41:03.081 -0800,91,C4D50155-580C-4885-BACB-A13DEF47355A,1511563261.989099,49.27911008203098,-122.9164320988082,346.3891,0.0862881,158.5513395432839,3,16,-9999,139868.0067740417,-0.1407928466796875,-0.0699615478515625,-0.9948883056640625,139867.9777210417,0.4310334213776517,-0.09521227002807689,-0.799472437126299
2017-11-24 14:41:03.102 -0800,92,C4D50155-580C-4885-BACB-A13DEF47355A,1511563261.989099,49.27911008203098,-122.9164320988082,346.3891,0.0862881,158.5513395432839,3,16,-9999,139868.0368330417,-0.1093597412109375,-0.1799468994140625,-0.93170166015625,139868.0077810417,0.7910318143674019,-0.1218923504607087,-1.216162871821111
2017-11-24 14:41:03.132 -0800,93,C4D50155-580C-4885-BACB-A13DEF47355A,1511563261.989099,49.27911008203098,-122.9164320988082,346.3891,0.0862881,158.5513395432839,3,16,-9999,139868.0668630417,-0.077850341796875,-0.2285003662109375,-0.9221343994140625,139868.0378410417,0.6264772211402778,0.09816198725144866,-1.25376936957412
2017-11-24 14:41:03.162 -0800,94,C4D50155-580C-4885-BACB-A13DEF47355A,1511563262.989079,49.27910996538887,-122.9164288878932,346.3903,0.0862881,151.4688022041958,3,16,-9999,139868.0969230417,-0.05657958984375,-0.1579132080078125,-0.93499755859375,139868.0679000417,0.3503886425123083,0.2606345211383488,-0.945806214807319
2017-11-24 14:41:03.192 -0800,95,C4D50155-580C-4885-BACB-A13DEF47355A,1511563262.989079,49.27910996538887,-122.9164288878932,346.3903,0.0862881,151.4688022041958,3,16,-9999,139868.1269820417,-0.03375244140625,-0.0992431640625,-0.8863525390625,139868.0979600417,0.2948039431885014,-0.07799892832234974,-0.7572810412406097
2017-11-24 14:41:03.222 -0800,96,C4D50155-580C-4885-BACB-A13DEF47355A,1511563262.989079,49.27910996538887,-122.9164288878932,346.3903,0.0862881,151.4688022041958,3,16,-9999,139868.1570420417,-0.0301513671875,-0.1134796142578125,-0.7581939697265625,139868.1280200417,0.3468362519342515,-0.5925951541717448,-0.8309435443599834
2017-11-24 14:41:03.252 -0800,97,C4D50155-580C-4885-BACB-A13DEF47355A,1511563262.989079,49.27910996538887,-122.9164288878932,346.3903,0.0862881,151.4688022041958,3,16,-9999,139868.1871020417,-0.0372161865234375,-0.1883544921875,-0.6716461181640625,139868.1580800417,0.4630480797898213,-0.7220783126875063,-0.9726828365283987
2017-11-24 14:41:03.282 -0800,98,C4D50155-580C-4885-BACB-A13DEF47355A,1511563262.989079,49.27910996538887,-122.9164288878932,346.3903,0.0862881,151.4688022041958,3,16,-9999,139868.2171620417,-0.0325775146484375,-0.277191162109375,-0.6735382080078125,139868.1881400417,0.4612128954826477,-0.4981850282639997,-0.9817482368790283
2017-11-24 14:41:03.329 -0800,99,C4D50155-580C-4885-BACB-A13DEF47355A,1511563262.989079,49.27910996538887,-122.9164288878932,346.3903,0.0862881,151.4688022041958,3,16,-9999,139868.2472220417,-0.015716552734375,-0.308258056640625,-0.718902587890625,139868.2181990417,0.2192415409474652,-0.1902359882509762,-0.7982985157177921
2017-11-24 14:41:03.342 -0800,100,C4D50155-580C-4885-BACB-A13DEF47355A,1511563262.989079,49.27910996538887,-122.9164288878932,346.3903,0.0862881,151.4688022041958,3,16,-9999,139868.2772810417,0.00604248046875,-0.2929229736328125,-0.809417724609375,139868.2482590417,0.06515104027548047,0.05692586724877074,-0.5410520681182421
2017-11-24 14:41:03.373 -0800,101,C4D50155-580C-4885-BACB-A13DEF47355A,1511563262.989079,49.27910996538887,-122.9164288878932,346.3903,0.0862881,151.4688022041958,3,16,-9999,139868.3073410417,0.0386199951171875,-0.305145263671875,-0.8993682861328125,139868.2783190417,-0.01830390617211461,0.1046470508219006,-0.4052857136426566
2017-11-24 14:41:03.404 -0800,102,C4D50155-580C-4885-BACB-A13DEF47355A,1511563262.989079,49.27910996538887,-122.9164288878932,346.3903,0.0862881,151.4688022041958,3,16,-9999,139868.3374010417,0.0712127685546875,-0.3471221923828125,-0.9814910888671875,139868.3083790417,-0.07506811954271754,0.2467863497860457,-0.2996402437280853
2017-11-24 14:41:03.433 -0800,103,C4D50155-580C-4885-BACB-A13DEF47355A,1511563262.989079,49.27910996538887,-122.9164288878932,346.3903,0.0862881,151.4688022041958,3,16,-9999,139868.3674610417,0.1352996826171875,-0.3423919677734375,-1.137069702148438,139868.3384390417,-0.1442839425899859,0.6294738099988351,0.02012231256442071
2017-11-24 14:41:03.463 -0800,104,C4D50155-580C-4885-BACB-A13DEF47355A,1511563262.989079,49.27910996538887,-122.9164288878932,346.3903,0.0862881,151.4688022041958,3,16,-9999,139868.3975210417,0.18060302734375,-0.352325439453125,-1.2445068359375,139868.3684980417,-0.3676483232210028,0.5795802859245275,0.3572625276019118
2017-11-24 14:41:03.493 -0800,105,C4D50155-580C-4885-BACB-A13DEF47355A,1511563262.989079,49.27910996538887,-122.9164288878932,346.3903,0.0862881,151.4688022041958,3,16,-9999,139868.4275800417,0.1512451171875,-0.377227783203125,-1.23809814453125,139868.3985580417,-0.7577180659754917,0.01867142240254554,0.6773265537298148
2017-11-24 14:41:03.523 -0800,106,C4D50155-580C-4885-BACB-A13DEF47355A,1511563262.989079,49.27910996538887,-122.9164288878932,346.3903,0.0862881,151.4688022041958,3,16,-9999,139868.45762,0.0654754638671875,-0.3459930419921875,-1.188934326171875,139868.4286180417,-1.120974836558954,-0.3940628864929537,1.197121270027044
2017-11-24 14:41:03.562 -0800,107,C4D50155-580C-4885-BACB-A13DEF47355A,1511563262.989079,49.27910996538887,-122.9164288878932,346.3903,0.0862881,151.4688022041958,3,16,-9999,139868.48768,0.003326416015625,-0.21051025390625,-1.139617919921875,139868.458658,-1.271051420835971,-0.3859000314357519,1.622964456756241
2017-11-24 14:41:03.583 -0800,108,C4D50155-580C-4885-BACB-A13DEF47355A,1511563262.989079,49.27910996538887,-122.9164288878932,346.3903,0.0862881,151.4688022041958,3,16,-9999,139868.51774,-0.0297698974609375,-0.1480712890625,-1.07958984375,139868.488718,-0.7247521264219459,-0.2743492681200388,1.432325798548445
2017-11-24 14:41:03.613 -0800,109,C4D50155-580C-4885-BACB-A13DEF47355A,1511563262.989079,49.27910996538887,-122.9164288878932,346.3903,0.0862881,151.4688022041958,3,16,-9999,139868.5478,-0.058868408203125,-0.2541351318359375,-0.999908447265625,139868.518778,0.07223504877509124,-0.3071684674975213,0.9279806123669826
2017-11-24 14:41:03.649 -0800,110,C4D50155-580C-4885-BACB-A13DEF47355A,1511563262.989079,49.27910996538887,-122.9164288878932,346.3903,0.0862881,151.4688022041958,3,16,-9999,139868.57786,-0.0603485107421875,-0.282928466796875,-0.941375732421875,139868.548837,0.2560642703916638,-0.06832526197874592,0.5905655591049953
2017-11-24 14:41:03.673 -0800,111,C4D50155-580C-4885-BACB-A13DEF47355A,1511563262.989079,49.27910996538887,-122.9164288878932,346.3903,0.0862881,151.4688022041958,3,16,-9999,139868.607919,-0.0649566650390625,-0.23150634765625,-0.917388916015625,139868.578897,0.1557235510524213,0.1696319098453601,0.5478079751715552
2017-11-24 14:41:03.703 -0800,112,C4D50155-580C-4885-BACB-A13DEF47355A,1511563262.989079,49.27910996538887,-122.9164288878932,346.3903,0.0862881,151.4688022041958,3,16,-9999,139868.637979,-0.044647216796875,-0.155914306640625,-0.89739990234375,139868.608957,0.02948625327324832,0.3471710112832745,0.5033624797392228
2017-11-24 14:41:03.733 -0800,113,C4D50155-580C-4885-BACB-A13DEF47355A,1511563262.989079,49.27910996538887,-122.9164288878932,346.3903,0.0862881,151.4688022041958,3,16,-9999,139868.668039,-0.027313232421875,-0.176422119140625,-0.8246307373046875,139868.639017,0.324465965093695,0.3129600439201166,0.2471067280651823
2017-11-24 14:41:03.763 -0800,114,C4D50155-580C-4885-BACB-A13DEF47355A,1511563262.989079,49.27910996538887,-122.9164288878932,346.3903,0.0862881,151.4688022041958,3,16,-9999,139868.698099,-0.0388031005859375,-0.257720947265625,-0.7341461181640625,139868.669077,0.7880615908036366,0.1753316072103477,0.07135460771871105
2017-11-24 14:41:03.809 -0800,115,C4D50155-580C-4885-BACB-A13DEF47355A,1511563262.989079,49.27910996538887,-122.9164288878932,346.3903,0.0862881,151.4688022041958,3,16,-9999,139868.728159,-0.0444793701171875,-0.316925048828125,-0.7032318115234375,139868.699136,0.786935073662533,0.2029896003952566,0.02673281102221539
2017-11-24 14:41:03.823 -0800,116,C4D50155-580C-4885-BACB-A13DEF47355A,1511563262.989079,49.27910996538887,-122.9164288878932,346.3903,0.0862881,151.4688022041958,3,16,-9999,139868.758218,-0.050140380859375,-0.344879150390625,-0.7460479736328125,139868.729196,0.5060456145374777,0.3308588832904302,0.07608917550465391
2017-11-24 14:41:03.854 -0800,117,C4D50155-580C-4885-BACB-A13DEF47355A,1511563262.989079,49.27910996538887,-122.9164288878932,346.3903,0.0862881,151.4688022041958,3,16,-9999,139868.788278,-0.075439453125,-0.32861328125,-0.832061767578125,139868.759256,0.3358160913435037,0.3532909554682766,0.2229529222425996
2017-11-24 14:41:03.889 -0800,118,C4D50155-580C-4885-BACB-A13DEF47355A,1511563262.989079,49.27910996538887,-122.9164288878932,346.3903,0.0862881,151.4688022041958,3,16,-9999,139868.818338,-0.1312255859375,-0.33251953125,-0.8580474853515625,139868.789285,0.2926475816538643,0.06682323912394122,0.2799573527435277
2017-11-24 14:41:03.914 -0800,119,C4D50155-580C-4885-BACB-A13DEF47355A,1511563262.989079,49.27910996538887,-122.9164288878932,346.3903,0.0862881,151.4688022041958,3,16,-9999,139868.848398,-0.1671905517578125,-0.3679962158203125,-0.8818206787109375,139868.819345,0.1675644978911316,-0.209556156695065,0.1057525289903925
2017-11-24 14:41:03.945 -0800,120,C4D50155-580C-4885-BACB-A13DEF47355A,1511563262.989079,49.27910996538887,-122.9164288878932,346.3903,0.0862881,151.4688022041958,3,16,-9999,139868.878458,-0.1756744384765625,-0.395172119140625,-0.97540283203125,139868.849405,0.01215173773792256,-0.2353541981746626,-0.1417909574935628
2017-11-24 14:41:03.974 -0800,121,C4D50155-580C-4885-BACB-A13DEF47355A,1511563262.989079,49.27910996538887,-122.9164288878932,346.3903,0.0862881,151.4688022041958,3,16,-9999,139868.908518,-0.1714324951171875,-0.4411468505859375,-1.141555786132812,139868.879465,-0.140387205282982,0.02296177491866319,-0.2386400063276023
2017-11-24 14:41:04.004 -0800,122,C4D50155-580C-4885-BACB-A13DEF47355A,1511563262.989079,49.27910996538887,-122.9164288878932,346.3903,0.0862881,151.4688022041958,3,16,-9999,139868.938577,-0.1145172119140625,-0.370025634765625,-1.323654174804688,139868.909525,-0.4931117063873988,0.4108871403634203,-0.1548878511023545
2017-11-24 14:41:04.039 -0800,123,C4D50155-580C-4885-BACB-A13DEF47355A,1511563262.989079,49.27910996538887,-122.9164288878932,346.3903,0.0862881,151.4688022041958,3,16,-9999,139868.968637,-0.071075439453125,-0.191741943359375,-1.414886474609375,139868.939584,-0.7184609409788517,0.4323245218741221,0.02817784222969239
2017-11-24 14:41:04.064 -0800,124,C4D50155-580C-4885-BACB-A13DEF47355A,1511563262.989079,49.27910996538887,-122.9164288878932,346.3903,0.0862881,151.4688022041958,3,16,-9999,139868.998697,-0.104095458984375,-0.1009521484375,-1.297378540039062,139868.969644,-0.3184309757474664,0.01021375541267189,0.02710831673591656
2017-11-24 14:41:04.094 -0800,125,C4D50155-580C-4885-BACB-A13DEF47355A,1511563262.989079,49.27910996538887,-122.9164288878932,346.3903,0.0862881,151.4688022041958,3,16,-9999,139869.028757,-0.131072998046875,-0.183837890625,-1.09161376953125,139868.999704,0.2293490362326429,-0.4764512369239721,-0.2946952862160262
2017-11-24 14:41:04.130 -0800,126,C4D50155-580C-4885-BACB-A13DEF47355A,1511563262.989079,49.27910996538887,-122.9164288878932,346.3903,0.0862881,151.4688022041958,3,16,-9999,139869.058817,-0.1166534423828125,-0.2630767822265625,-0.9549560546875,139869.029764,0.2405284538565776,-0.448518405514567,-0.5347760626933614
2017-11-24 14:41:04.154 -0800,127,C4D50155-580C-4885-BACB-A13DEF47355A,1511563263.989058,49.27910899167685,-122.9164295388865,346.4059,0.3684196,145.4030478060909,3,16,-9999,139869.088876,-0.1011810302734375,-0.21295166015625,-0.897674560546875,139869.059824,-0.02645371173997509,-0.2391843564544145,-0.3541535533453533
2017-11-24 14:41:04.184 -0800,128,C4D50155-580C-4885-BACB-A13DEF47355A,1511563263.989058,49.27910899167685,-122.9164295388865,346.4059,0.3684196,145.4030478060909,3,16,-9999,139869.118936,-0.0709991455078125,-0.097381591796875,-0.816162109375,139869.089883,-0.1205820752043897,-0.2084088668974589,-0.2228794189965134
2017-11-24 14:41:04.214 -0800,129,C4D50155-580C-4885-BACB-A13DEF47355A,1511563263.989058,49.27910899167685,-122.9164295388865,346.4059,0.3684196,145.4030478060909,3,16,-9999,139869.148966,-0.0296783447265625,-0.0980072021484375,-0.7059478759765625,139869.119943,0.2213837877283249,-0.2904464790129138,-0.4943348962760722
2017-11-24 14:41:04.244 -0800,130,C4D50155-580C-4885-BACB-A13DEF47355A,1511563263.989058,49.27910899167685,-122.9164295388865,346.4059,0.3684196,145.4030478060909,3,16,-9999,139869.179025,-0.0059356689453125,-0.2123565673828125,-0.6236572265625,139869.150003,0.6128881753620395,-0.3056560583144653,-0.8263975283792182
2017-11-24 14:41:04.286 -0800,131,C4D50155-580C-4885-BACB-A13DEF47355A,1511563263.989058,49.27910899167685,-122.9164295388865,346.4059,0.3684196,145.4030478060909,3,16,-9999,139869.209085,-0.0104217529296875,-0.3204193115234375,-0.59906005859375,139869.180063,0.6586170481236812,-0.1793910636599555,-0.8943763131001448
2017-11-24 14:41:04.304 -0800,132,C4D50155-580C-4885-BACB-A13DEF47355A,1511563263.989058,49.27910899167685,-122.9164295388865,346.4059,0.3684196,145.4030478060909,3,16,-9999,139869.239145,-0.017181396484375,-0.3502655029296875,-0.637420654296875,139869.210123,0.4651836686679558,0.07529289033872022,-0.6420929325080664
2017-11-24 14:41:04.334 -0800,133,C4D50155-580C-4885-BACB-A13DEF47355A,1511563263.989058,49.27910899167685,-122.9164295388865,346.4059,0.3684196,145.4030478060909,3,16,-9999,139869.269205,0.00042724609375,-0.335662841796875,-0.7504119873046875,139869.240183,0.2135684751933784,0.339691257045678,-0.413195302080192
2017-11-24 14:41:04.365 -0800,134,C4D50155-580C-4885-BACB-A13DEF47355A,1511563263.989058,49.27910899167685,-122.9164295388865,346.4059,0.3684196,145.4030478060909,3,16,-9999,139869.299265,0.0219268798828125,-0.3313751220703125,-0.8580474853515625,139869.270242,0.07415465528882036,0.3790138958051339,-0.2550860913232777
2017-11-24 14:41:04.395 -0800,135,C4D50155-580C-4885-BACB-A13DEF47355A,1511563263.989058,49.27910899167685,-122.9164295388865,346.4059,0.3684196,145.4030478060909,3,16,-9999,139869.329324,0.0257110595703125,-0.3399200439453125,-0.9055023193359375,139869.300302,-0.03114646789680372,0.2474215137060296,-0.08718710039923211
2017-11-24 14:41:04.425 -0800,136,C4D50155-580C-4885-BACB-A13DEF47355A,1511563263.989058,49.27910899167685,-122.9164295388865,346.4059,0.3684196,145.4030478060909,3,16,-9999,139869.359384,0.045196533203125,-0.39019775390625,-1.05841064453125,139869.330362,-0.1691991461682223,0.4203962233516572,0.09254005419029139
2017-11-24 14:41:04.455 -0800,137,C4D50155-580C-4885-BACB-A13DEF47355A,1511563263.989058,49.27910899167685,-122.9164295388865,346.4059,0.3684196,145.4030478060909,3,16,-9999,139869.389444,0.0969696044921875,-0.3632965087890625,-1.307952880859375,139869.360422,-0.6931577148297908,0.7955911461536176,0.4208960986882651
2017-11-24 14:41:04.485 -0800,138,C4D50155-580C-4885-BACB-A13DEF47355A,1511563263.989058,49.27910899167685,-122.9164295388865,346.4059,0.3684196,145.4030478060909,3,16,-9999,139869.419504,0.1410980224609375,-0.27362060546875,-1.405044555664062,139869.390482,-0.9222654686676726,0.6640994315437182,0.7013669088899601
2017-11-24 14:41:04.520 -0800,139,C4D50155-580C-4885-BACB-A13DEF47355A,1511563263.989058,49.27910899167685,-122.9164295388865,346.4059,0.3684196,145.4030478060909,3,16,-9999,139869.449549125,0.0814208984375,-0.3009185791015625,-1.33868408203125,139869.420541,-0.5179275740569751,0.276810028967272,0.8185113757592756
2017-11-24 14:41:04.545 -0800,140,C4D50155-580C-4885-BACB-A13DEF47355A,1511563263.989058,49.27910899167685,-122.9164295388865,346.4059,0.3684196,145.4030478060909,3,16,-9999,139869.479608125,0.0391845703125,-0.2604217529296875,-1.227828979492188,139869.450586125,-0.1559368702557367,0.06259919931896654,0.9108298549468723
2017-11-24 14:41:04.575 -0800,141,C4D50155-580C-4885-BACB-A13DEF47355A,1511563263.989058,49.27910899167685,-122.9164295388865,346.4059,0.3684196,145.4030478060909,3,16,-9999,139869.509668125,0.0139312744140625,-0.24761962890625,-1.07891845703125,139869.480646125,-0.00015393071100658,-0.2920611535818288,0.8681857216758695
2017-11-24 14:41:04.605 -0800,142,C4D50155-580C-4885-BACB-A13DEF47355A,1511563263.989058,49.27910899167685,-122.9164295388865,346.4059,0.3684196,145.4030478060909,3,16,-9999,139869.539728125,0.039642333984375,-0.270416259765625,-1.016677856445312,139869.510706125,-0.08232603246151048,-0.2373635532171274,0.6073008633950533
2017-11-24 14:41:04.635 -0800,143,C4D50155-580C-4885-BACB-A13DEF47355A,1511563263.989058,49.27910899167685,-122.9164295388865,346.4059,0.3684196,145.4030478060909,3,16,-9999,139869.569788125,0.0706024169921875,-0.2371368408203125,-0.985504150390625,139869.540766125,-0.1778432344344014,0.009197493140697658,0.4827623960752419
2017-11-24 14:41:04.665 -0800,144,C4D50155-580C-4885-BACB-A13DEF47355A,1511563263.989058,49.27910899167685,-122.9164295388865,346.4059,0.3684196,145.4030478060909,3,16,-9999,139869.599848125,0.05303955078125,-0.208404541015625,-0.872283935546875,139869.570826125,-0.05089966633413944,-0.03032727954549534,0.4733145657920768
2017-11-24 14:41:04.695 -0800,145,C4D50155-580C-4885-BACB-A13DEF47355A,1511563263.989058,49.27910899167685,-122.9164295388865,346.4059,0.3684196,145.4030478060909,3,16,-9999,139869.629908125,0.0179901123046875,-0.2147369384765625,-0.683197021484375,139869.600885125,0.2479948922887237,-0.2599761877168812,0.3474722148025625
2017-11-24 14:41:04.725 -0800,146,C4D50155-580C-4885-BACB-A13DEF47355A,1511563263.989058,49.27910899167685,-122.9164295388865,346.4059,0.3684196,145.4030478060909,3,16,-9999,139869.659967125,-0.014373779296875,-0.2708587646484375,-0.55181884765625,139869.630945125,0.5847438889620822,-0.2308041874522622,0.2112552534705356
2017-11-24 14:41:04.768 -0800,147,C4D50155-580C-4885-BACB-A13DEF47355A,1511563263.989058,49.27910899167685,-122.9164295388865,346.4059,0.3684196,145.4030478060909,3,16,-9999,139869.690027125,-0.032196044921875,-0.3546600341796875,-0.5636444091796875,139869.661005125,0.6476967560738112,0.1393653503727186,0.2026766789671723
2017-11-24 14:41:04.785 -0800,148,C4D50155-580C-4885-BACB-A13DEF47355A,1511563263.989058,49.27910899167685,-122.9164295388865,346.4059,0.3684196,145.4030478060909,3,16,-9999,139869.720087125,-0.0570831298828125,-0.3803558349609375,-0.6674652099609375,139869.691065125,0.3104572051276602,0.4411377208695214,0.4003034718753364
2017-11-24 14:41:04.815 -0800,149,C4D50155-580C-4885-BACB-A13DEF47355A,1511563263.989058,49.27910899167685,-122.9164295388865,346.4059,0.3684196,145.4030478060909,3,16,-9999,139869.750147125,-0.0794830322265625,-0.3249664306640625,-0.780487060546875,139869.721125125,-0.1553903896000524,0.3887490811699186,0.640430054723421
2017-11-24 14:41:04.848 -0800,150,C4D50155-580C-4885-BACB-A13DEF47355A,1511563263.989058,49.27910899167685,-122.9164295388865,346.4059,0.3684196,145.4030478060909,3,16,-9999,139869.780207125,-0.1355743408203125,-0.3122100830078125,-0.83843994140625,139869.751184125,-0.3747267390823244,0.1038944414978442,0.5931482927301542
2017-11-24 14:41:04.875 -0800,151,C4D50155-580C-4885-BACB-A13DEF47355A,1511563263.989058,49.27910899167685,-122.9164295388865,346.4059,0.3684196,145.4030478060909,3,16,-9999,139869.810266125,-0.167266845703125,-0.336456298828125,-0.86846923828125,139869.781244125,-0.1990622367357168,0.03496437563554131,0.3175872863141293
2017-11-24 14:41:04.906 -0800,152,C4D50155-580C-4885-BACB-A13DEF47355A,1511563263.989058,49.27910899167685,-122.9164295388865,346.4059,0.3684196,145.4030478060909,3,16,-9999,139869.840326125,-0.1396636962890625,-0.36993408203125,-0.937530517578125,139869.811304125,0.1237469758438399,0.2374618238613513,-0.04393470113525521
2017-11-24 14:41:04.936 -0800,153,C4D50155-580C-4885-BACB-A13DEF47355A,1511563263.989058,49.27910899167685,-122.9164295388865,346.4059,0.3684196,145.4030478060909,3,16,-9999,139869.870386125,-0.1189422607421875,-0.4313812255859375,-1.036712646484375,139869.841364125,0.2330716028043557,0.3543487630532561,-0.3138924166177534
2017-11-24 14:41:04.966 -0800,154,C4D50155-580C-4885-BACB-A13DEF47355A,1511563263.989058,49.27910899167685,-122.9164295388865,346.4059,0.3684196,145.4030478060909,3,16,-9999,139869.900446125,-0.075103759765625,-0.4711456298828125,-1.244155883789062,139869.871424125,-0.08946756524066697,0.4569393208813975,-0.3249237624850796
2017-11-24 14:41:04.999 -0800,155,C4D50155-580C-4885-BACB-A13DEF47355A,1511563263.989058,49.27910899167685,-122.9164295388865,346.4059,0.3684196,145.4030478060909,3,16,-9999,139869.930506125,0.004608154296875,-0.318084716796875,-1.495574951171875,139869.901453125,-0.8925539119662036,0.8742348257758755,-0.06224553152620402
2017-11-24 14:41:05.026 -0800,156,C4D50155-580C-4885-BACB-A13DEF47355A,1511563263.989058,49.27910899167685,-122.9164295388865,346.4059,0.3684196,145.4030478060909,3,16,-9999,139869.960566125,0.0806884765625,-0.05645751953125,-1.572845458984375,139869.931513125,-0.9433502476500479,0.8951648750989172,0.1984912549980038
2017-11-24 14:41:05.056 -0800,157,C4D50155-580C-4885-BACB-A13DEF47355A,1511563263.989058,49.27910899167685,-122.9164295388865,346.4059,0.3684196,145.4030478060909,3,16,-9999,139869.990625125,0.0400848388671875,-0.0299072265625,-1.3489990234375,139869.961573125,-0.0007012103150178634,0.0148788146941637,-0.01486629783704032
2017-11-24 14:41:05.086 -0800,158,C4D50155-580C-4885-BACB-A13DEF47355A,1511563263.989058,49.27910899167685,-122.9164295388865,346.4059,0.3684196,145.4030478060909,3,16,-9999,139870.020685125,0.0072174072265625,-0.1773529052734375,-1.08721923828125,139869.991632125,0.5473594988439858,-0.624229513180251,-0.5593075047585173
2017-11-24 14:41:05.116 -0800,159,C4D50155-580C-4885-BACB-A13DEF47355A,1511563263.989058,49.27910899167685,-122.9164295388865,346.4059,0.3684196,145.4030478060909,3,16,-9999,139870.050745125,-0.0140228271484375,-0.254119873046875,-0.9581146240234375,139870.021692125,0.4168385064514204,-0.4730253464976941,-0.7208825533580607
2017-11-24 14:41:05.169 -0800,160,C4D50155-580C-4885-BACB-A13DEF47355A,1511563264.989037,49.27910733338839,-122.9164292178011,346.409,0.7011682,136.7677625818488,3,16,-9999,139870.080805125,-0.0322418212890625,-0.17327880859375,-0.8483428955078125,139870.051752125,0.07484681085613196,-0.4854657708977813,-0.4188135067158231
2017-11-24 14:41:05.179 -0800,161,C4D50155-580C-4885-BACB-A13DEF47355A,1511563264.989037,49.27910733338839,-122.9164292178011,346.409,0.7011682,136.7677625818488,3,16,-9999,139870.110865125,-0.0351409912109375,-0.10198974609375,-0.7021942138671875,139870.081812125,-0.03749411235500758,-0.683652892899298,-0.4022246762857196
2017-11-24 14:41:05.206 -0800,162,C4D50155-580C-4885-BACB-A13DEF47355A,1511563264.989037,49.27910733338839,-122.9164292178011,346.409,0.7011682,136.7677625818488,3,16,-9999,139870.140924125,-0.0202789306640625,-0.162841796875,-0.621063232421875,139870.111872125,0.2268091795010344,-0.591395932732882,-0.7480776891455139
2017-11-24 14:41:05.240 -0800,163,C4D50155-580C-4885-BACB-A13DEF47355A,1511563264.989037,49.27910733338839,-122.9164292178011,346.409,0.7011682,136.7677625818488,3,16,-9999,139870.170984125,-0.0029144287109375,-0.2583465576171875,-0.617462158203125,139870.141931125,0.5486308919483897,-0.2926347984806319,-0.9211432125843132
2017-11-24 14:41:05.266 -0800,164,C4D50155-580C-4885-BACB-A13DEF47355A,1511563264.989037,49.27910733338839,-122.9164292178011,346.409,0.7011682,136.7677625818488,3,16,-9999,139870.201044125,-0.0010528564453125,-0.307861328125,-0.6414947509765625,139870.171991125,0.5635336750923641,-0.05731016139406917,-0.7990591145251188
2017-11-24 14:41:05.296 -0800,165,C4D50155-580C-4885-BACB-A13DEF47355A,1511563264.989037,49.27910733338839,-122.9164292178011,346.409,0.7011682,136.7677625818488,3,16,-9999,139870.231104125,0.0110015869140625,-0.3233489990234375,-0.721038818359375,139870.202051125,0.3667700126934947,0.06373929858162947,-0.5769381638070599
2017-11-24 14:41:05.326 -0800,166,C4D50155-580C-4885-BACB-A13DEF47355A,1511563264.989037,49.27910733338839,-122.9164292178011,346.409,0.7011682,136.7677625818488,3,16,-9999,139870.261133125,0.01885986328125,-0.3187255859375,-0.7946014404296875,139870.232111125,0.08614074440693999,-0.03567464069826545,-0.3824235409487624
2017-11-24 14:41:05.356 -0800,167,C4D50155-580C-4885-BACB-A13DEF47355A,1511563264.989037,49.27910733338839,-122.9164292178011,346.409,0.7011682,136.7677625818488,3,16,-9999,139870.291193125,0.0346221923828125,-0.2821502685546875,-0.8398895263671875,139870.262171125,-0.04380766835125843,-0.1619180637479456,-0.2075225668866805
2017-11-24 14:41:05.401 -0800,168,C4D50155-580C-4885-BACB-A13DEF47355A,1511563264.989037,49.27910733338839,-122.9164292178011,346.409,0.7011682,136.7677625818488,3,16,-9999,139870.321253125,0.0587921142578125,-0.315216064453125,-0.9032745361328125,139870.292231125,0.09061884977990822,-0.02328295214612675,-0.1685440085400628
2017-11-24 14:41:05.416 -0800,169,C4D50155-580C-4885-BACB-A13DEF47355A,1511563264.989037,49.27910733338839,-122.9164292178011,346.409,0.7011682,136.7677625818488,3,16,-9999,139870.351313125,0.119049072265625,-0.4305419921875,-1.096023559570312,139870.322290125,0.1866793366151754,0.3159736770096503,-0.131917554068203
2017-11-24 14:41:05.446 -0800,170,C4D50155-580C-4885-BACB-A13DEF47355A,1511563264.989037,49.27910733338839,-122.9164292178011,346.409,0.7011682,136.7677625818488,3,16,-9999,139870.381372125,0.191436767578125,-0.4251556396484375,-1.337875366210938,139870.352350125,-0.3761294260284692,0.5585631512338401,0.2379411928575656
2017-11-24 14:41:05.477 -0800,171,C4D50155-580C-4885-BACB-A13DEF47355A,1511563264.989037,49.27910733338839,-122.9164292178011,346.409,0.7011682,136.7677625818488,3,16,-9999,139870.411432125,0.1810455322265625,-0.3255767822265625,-1.323379516601562,139870.382410125,-0.8888981907378518,0.09108570191899912,0.6942200497886234
2017-11-24 14:41:05.507 -0800,172,C4D50155-580C-4885-BACB-A13DEF47355A,1511563264.989037,49.27910733338839,-122.9164292178011,346.409,0.7011682,136.7677625818488,3,16,-9999,139870.441492125,0.0906982421875,-0.3290863037109375,-1.235198974609375,139870.412470125,-0.6140381283207358,-0.08374736153528577,0.8339449269085027
2017-11-24 14:41:05.537 -0800,173,C4D50155-580C-4885-BACB-A13DEF47355A,1511563264.989037,49.27910733338839,-122.9164292178011,346.409,0.7011682,136.7677625818488,3,16,-9999,139870.471561,0.0409393310546875,-0.253753662109375,-1.148590087890625,139870.442530125,-0.2350047914396442,0.07125021180397993,0.9189610183871022
2017-11-24 14:41:05.567 -0800,174,C4D50155-580C-4885-BACB-A13DEF47355A,1511563264.989037,49.27910733338839,-122.9164292178011,346.409,0.7011682,136.7677625818488,3,16,-9999,139870.501621,0.0384368896484375,-0.2545928955078125,-1.049819946289062,139870.472598,0.01967223834019732,-0.08710933609540181,0.7265353790878629
2017-11-24 14:41:05.597 -0800,175,C4D50155-580C-4885-BACB-A13DEF47355A,1511563264.989037,49.27910733338839,-122.9164292178011,346.409,0.7011682,136.7677625818488,3,16,-9999,139870.53168,0.047088623046875,-0.3066864013671875,-0.9642486572265625,139870.502658,-0.07957685126822168,-0.1394060967373968,0.3810589372062058
2017-11-24 14:41:05.641 -0800,176,C4D50155-580C-4885-BACB-A13DEF47355A,1511563264.989037,49.27910733338839,-122.9164292178011,346.409,0.7011682,136.7677625818488,3,16,-9999,139870.56174,0.0699005126953125,-0.2769317626953125,-0.987640380859375,139870.532718,-0.2488811922995021,0.2536636969850664,0.3054954697007335
2017-11-24 14:41:05.657 -0800,177,C4D50155-580C-4885-BACB-A13DEF47355A,1511563264.989037,49.27910733338839,-122.9164292178011,346.409,0.7011682,136.7677625818488,3,16,-9999,139870.5918,0.0745391845703125,-0.2206268310546875,-0.9354095458984375,139870.562778,-0.1978523626524938,0.3267147383181579,0.3353297981284552
2017-11-24 14:41:05.687 -0800,178,C4D50155-580C-4885-BACB-A13DEF47355A,1511563264.989037,49.27910733338839,-122.9164292178011,346.409,0.7011682,136.7677625818488,3,16,-9999,139870.62186,0.041900634765625,-0.2433013916015625,-0.762664794921875,139870.592838,0.2351685758466841,-0.02734320754406155,0.1914594444557586
2017-11-24 14:41:05.720 -0800,179,C4D50155-580C-4885-BACB-A13DEF47355A,1511563264.989037,49.27910733338839,-122.9164292178011,346.409,0.7011682,136.7677625818488,3,16,-9999,139870.65192,0.010284423828125,-0.31219482421875,-0.634429931640625,139870.622898,0.6355426214909076,-0.1310003613887797,0.09438455956128027
2017-11-24 14:41:05.747 -0800,180,C4D50155-580C-4885-BACB-A13DEF47355A,1511563264.989037,49.27910733338839,-122.9164292178011,346.409,0.7011682,136.7677625818488,3,16,-9999,139870.68198,-0.00958251953125,-0.3626708984375,-0.63671875,139870.652957,0.6475771801408666,0.1362598382255772,0.1526816884553328
2017-11-24 14:41:05.777 -0800,181,C4D50155-580C-4885-BACB-A13DEF47355A,1511563264.989037,49.27910733338839,-122.9164292178011,346.409,0.7011682,136.7677625818488,3,16,-9999,139870.712039,-0.0272674560546875,-0.37969970703125,-0.7110137939453125,139870.683017,0.3763677789460312,0.259700550544058,0.307494438414947
2017-11-24 14:41:05.807 -0800,182,C4D50155-580C-4885-BACB-A13DEF47355A,1511563264.989037,49.27910733338839,-122.9164292178011,346.409,0.7011682,136.7677625818488,3,16,-9999,139870.742099,-0.0656585693359375,-0.3808746337890625,-0.7860870361328125,139870.713077,0.030517429247327,0.06823657871444627,0.4282624022634243
2017-11-24 14:41:05.837 -0800,183,C4D50155-580C-4885-BACB-A13DEF47355A,1511563264.989037,49.27910733338839,-122.9164292178011,346.409,0.7011682,136.7677625818488,3,16,-9999,139870.772159,-0.10467529296875,-0.364532470703125,-0.85894775390625,139870.743137,-0.1465636084830938,-0.06075682447684973,0.390645784498273
2017-11-24 14:41:05.879 -0800,184,C4D50155-580C-4885-BACB-A13DEF47355A,1511563264.989037,49.27910733338839,-122.9164292178011,346.409,0.7011682,136.7677625818488,3,16,-9999,139870.802219,-0.1116485595703125,-0.37066650390625,-0.926025390625,139870.773197,0.0929845357762256,0.07069334482004437,0.1220665211959999
2017-11-24 14:41:05.897 -0800,185,C4D50155-580C-4885-BACB-A13DEF47355A,1511563264.989037,49.27910733338839,-122.9164292178011,346.409,0.7011682,136.7677625818488,3,16,-9999,139870.832279,-0.0988311767578125,-0.42633056640625,-0.953704833984375,139870.803256,0.5038290655622046,0.1446248272095161,-0.2477102003681942
2017-11-24 14:41:05.927 -0800,186,C4D50155-580C-4885-BACB-A13DEF47355A,1511563264.989037,49.27910733338839,-122.9164292178011,346.409,0.7011682,136.7677625818488,3,16,-9999,139870.862338,-0.078033447265625,-0.4730224609375,-1.004898071289062,139870.833316,0.4835309843658387,0.1545549559660945,-0.4650188189964799
2017-11-24 14:41:05.962 -0800,187,C4D50155-580C-4885-BACB-A13DEF47355A,1511563264.989037,49.27910733338839,-122.9164292178011,346.409,0.7011682,136.7677625818488,3,16,-9999,139870.892398,-0.042205810546875,-0.516815185546875,-1.135879516601562,139870.863376,0.2547121835062305,0.230494994449704,-0.5296851639535659
2017-11-24 14:41:05.987 -0800,188,C4D50155-580C-4885-BACB-A13DEF47355A,1511563264.989037,49.27910733338839,-122.9164292178011,346.409,0.7011682,136.7677625818488,3,16,-9999,139870.922458,-0.0106353759765625,-0.4409027099609375,-1.290481567382812,139870.893436,-0.2755921654007788,0.3555000475924974,-0.3286085121693132
2017-11-24 14:41:06.018 -0800,189,C4D50155-580C-4885-BACB-A13DEF47355A,1511563264.989037,49.27910733338839,-122.9164292178011,346.409,0.7011682,136.7677625818488,3,16,-9999,139870.952518,0.027679443359375,-0.2170867919921875,-1.326873779296875,139870.923496,-0.6382782205626369,0.2890682931487978,-0.07491046040618485
2017-11-24 14:41:06.048 -0800,190,C4D50155-580C-4885-BACB-A13DEF47355A,1511563264.989037,49.27910733338839,-122.9164292178011,346.409,0.7011682,136.7677625818488,3,16,-9999,139870.982578,0.029510498046875,-0.1475372314453125,-1.2088623046875,139870.953555,-0.1436722144875947,-0.1140219104911975,-0.161394486277636
2017-11-24 14:41:06.078 -0800,191,C4D50155-580C-4885-BACB-A13DEF47355A,1511563264.989037,49.27910733338839,-122.9164292178011,346.409,0.7011682,136.7677625818488,3,16,-9999,139871.012637,0.0389862060546875,-0.2912750244140625,-1.078155517578125,139870.983615,0.303597434791834,-0.4571334653248643,-0.5432028370145902
2017-11-24 14:41:06.119 -0800,192,C4D50155-580C-4885-BACB-A13DEF47355A,1511563264.989037,49.27910733338839,-122.9164292178011,346.409,0.7011682,136.7677625818488,3,16,-9999,139871.042697,0.0252685546875,-0.3478851318359375,-1.008041381835938,139871.013645,-0.01895638063918402,-0.4119002068420864,-0.5139591977166481
2017-11-24 14:41:06.138 -0800,193,C4D50155-580C-4885-BACB-A13DEF47355A,1511563264.989037,49.27910733338839,-122.9164292178011,346.409,0.7011682,136.7677625818488,3,16,-9999,139871.072757,0.0081939697265625,-0.213165283203125,-0.9240264892578125,139871.043704,-0.3713543781939571,-0.4297702840726271,-0.1163790743720267
2017-11-24 14:41:06.168 -0800,194,C4D50155-580C-4885-BACB-A13DEF47355A,1511563265.989017,49.27908903658354,-122.9164189412865,346.4185,1.012971,178.5662800002791,3,16,-9999,139871.102817,-0.0198822021484375,-0.1534423828125,-0.7386474609375,139871.073764,-0.1625548255645836,-0.7739692075793733,-0.138874796099926
2017-11-24 14:41:06.199 -0800,195,C4D50155-580C-4885-BACB-A13DEF47355A,1511563265.989017,49.27908903658354,-122.9164189412865,346.4185,1.012971,178.5662800002791,3,16,-9999,139871.132877,-0.0310516357421875,-0.230438232421875,-0.5988006591796875,139871.103824,0.2733862690698662,-0.7679251634854384,-0.5562097157785372
2017-11-24 14:41:06.228 -0800,196,C4D50155-580C-4885-BACB-A13DEF47355A,1511563265.989017,49.27908903658354,-122.9164189412865,346.4185,1.012971,178.5662800002791,3,16,-9999,139871.162937,-0.0134124755859375,-0.3378143310546875,-0.6058197021484375,139871.133884,0.57633682203292,-0.3289294230806678,-0.8186210979961868
2017-11-24 14:41:06.260 -0800,197,C4D50155-580C-4885-BACB-A13DEF47355A,1511563265.989017,49.27908903658354,-122.9164189412865,346.4185,1.012971,178.5662800002791,3,16,-9999,139871.192996,0.0020751953125,-0.3734130859375,-0.6548614501953125,139871.163944,0.4695395349468894,-0.1060667819990219,-0.6966893327513449
2017-11-24 14:41:06.288 -0800,198,C4D50155-580C-4885-BACB-A13DEF47355A,1511563265.989017,49.27908903658354,-122.9164189412865,346.4185,1.012971,178.5662800002791,3,16,-9999,139871.223056,0.0030670166015625,-0.3585052490234375,-0.7432403564453125,139871.194003,0.1250559195196138,-0.03448900138096217,-0.518895100481001
2017-11-24 14:41:06.318 -0800,199,C4D50155-580C-4885-BACB-A13DEF47355A,1511563265.989017,49.27908903658354,-122.9164189412865,346.4185,1.012971,178.5662800002791,3,16,-9999,139871.253116,0.01800537109375,-0.33416748046875,-0.846649169921875,139871.224063,0.06775880761488606,-0.04413790032642825,-0.3721485328310187
2017-11-24 14:41:06.362 -0800,200,C4D50155-580C-4885-BACB-A13DEF47355A,1511563265.989017,49.27908903658354,-122.9164189412865,346.4185,1.012971,178.5662800002791,3,16,-9999,139871.283176,0.019866943359375,-0.366790771484375,-0.8621368408203125,139871.254123,0.192381164509035,-0.2789024746357473,-0.370411619168069
2017-11-24 14:41:06.378 -0800,201,C4D50155-580C-4885-BACB-A13DEF47355A,1511563265.989017,49.27908903658354,-122.9164189412865,346.4185,1.012971,178.5662800002791,3,16,-9999,139871.313236,0.0399932861328125,-0.3962860107421875,-0.854095458984375,139871.284183,0.2131106778019938,-0.2608821951197262,-0.3891283153091459
2017-11-24 14:41:06.410 -0800,202,C4D50155-580C-4885-BACB-A13DEF47355A,1511563265.989017,49.27908903658354,-122.9164189412865,346.4185,1.012971,178.5662800002791,3,16,-9999,139871.343295,0.0843505859375,-0.4892120361328125,-1.037139892578125,139871.314243,0.1000994369444813,0.3514941206808002,-0.3355002404382203
2017-11-24 14:41:06.443 -0800,203,C4D50155-580C-4885-BACB-A13DEF47355A,1511563265.989017,49.27908903658354,-122.9164189412865,346.4185,1.012971,178.5662800002791,3,16,-9999,139871.373355,0.1195526123046875,-0.488250732421875,-1.260574340820312,139871.344303,-0.3503755930229669,0.7985480539119325,0.07521459340267189
2017-11-24 14:41:06.468 -0800,204,C4D50155-580C-4885-BACB-A13DEF47355A,1511563265.989017,49.27908903658354,-122.9164189412865,346.4185,1.012971,178.5662800002791,3,16,-9999,139871.403385,0.0849761962890625,-0.3683013916015625,-1.335311889648438,139871.374362,-1.064223406361583,0.5519902033474156,0.6729483168977245
2017-11-24 14:41:06.498 -0800,205,C4D50155-580C-4885-BACB-A13DEF47355A,1511563265.989017,49.27908903658354,-122.9164189412865,346.4185,1.012971,178.5662800002791,3,16,-9999,139871.433444,0.0712738037109375,-0.14776611328125,-1.294998168945312,139871.404422,-1.385303961077569,0.2221883286936379,1.020369399007357
2017-11-24 14:41:06.528 -0800,206,C4D50155-580C-4885-BACB-A13DEF47355A,1511563265.989017,49.27908903658354,-122.9164189412865,346.4185,1.012971,178.5662800002791,3,16,-9999,139871.4634692917,0.06396484375,-0.1255340576171875,-1.157821655273438,139871.434482,-0.6037247706832949,-0.173861542288624,0.7722341581291866
2017-11-24 14:41:06.560 -0800,207,C4D50155-580C-4885-BACB-A13DEF47355A,1511563265.989017,49.27908903658354,-122.9164189412865,346.4185,1.012971,178.5662800002791,3,16,-9999,139871.4935292917,0.0686187744140625,-0.235382080078125,-1.039230346679688,139871.4645072917,-0.08061947883498771,-0.270826704946191,0.2881966405240148
2017-11-24 14:41:06.598 -0800,208,C4D50155-580C-4885-BACB-A13DEF47355A,1511563265.989017,49.27908903658354,-122.9164189412865,346.4185,1.012971,178.5662800002791,3,16,-9999,139871.5235892917,0.075653076171875,-0.2650604248046875,-0.987396240234375,139871.4945672917,-0.16085386457635,0.01496909585511738,0.1565906763033511
2017-11-24 14:41:06.619 -0800,209,C4D50155-580C-4885-BACB-A13DEF47355A,1511563265.989017,49.27908903658354,-122.9164189412865,346.4185,1.012971,178.5662800002791,3,16,-9999,139871.5536492917,0.046539306640625,-0.2239990234375,-0.8874053955078125,139871.5246262917,-0.3466796580621549,-0.01449931423882741,0.2679448983306163
2017-11-24 14:41:06.649 -0800,210,C4D50155-580C-4885-BACB-A13DEF47355A,1511563265.989017,49.27908903658354,-122.9164189412865,346.4185,1.012971,178.5662800002791,3,16,-9999,139871.5837082917,0.006591796875,-0.213775634765625,-0.7217559814453125,139871.5546862917,-0.105330950589833,-0.2344697623766473,0.1410623166193171
2017-11-24 14:41:06.682 -0800,211,C4D50155-580C-4885-BACB-A13DEF47355A,1511563265.989017,49.27908903658354,-122.9164189412865,346.4185,1.012971,178.5662800002791,3,16,-9999,139871.6137682917,-0.0330352783203125,-0.298309326171875,-0.60791015625,139871.5847462917,0.4037735707757096,-0.2214572909744111,-0.08453405932129518
2017-11-24 14:41:06.710 -0800,212,C4D50155-580C-4885-BACB-A13DEF47355A,1511563265.989017,49.27908903658354,-122.9164189412865,346.4185,1.012971,178.5662800002791,3,16,-9999,139871.6438282917,-0.042633056640625,-0.383453369140625,-0.61553955078125,139871.6148062917,0.5406997319060247,0.08820948794171353,-0.1833538473619934
2017-11-24 14:41:06.739 -0800,213,C4D50155-580C-4885-BACB-A13DEF47355A,1511563265.989017,49.27908903658354,-122.9164189412865,346.4185,1.012971,178.5662800002791,3,16,-9999,139871.6738882917,-0.02655029296875,-0.410675048828125,-0.71514892578125,139871.6448662917,0.3395533053012119,0.3664799944507851,-0.07792143033462844
2017-11-24 14:41:06.769 -0800,214,C4D50155-580C-4885-BACB-A13DEF47355A,1511563265.989017,49.27908903658354,-122.9164189412865,346.4185,1.012971,178.5662800002791,3,16,-9999,139871.7039482917,-0.0191192626953125,-0.3771514892578125,-0.856781005859375,139871.6749252917,0.07528836296486709,0.4569001724133733,0.1503226603617406
2017-11-24 14:41:06.799 -0800,215,C4D50155-580C-4885-BACB-A13DEF47355A,1511563265.989017,49.27908903658354,-122.9164189412865,346.4185,1.012971,178.5662800002791,3,16,-9999,139871.7340082917,-0.0297088623046875,-0.3810272216796875,-0.961700439453125,139871.7049852917,0.03288444682418942,0.2297983115085393,0.2393899524905687
2017-11-24 14:41:06.845 -0800,216,C4D50155-580C-4885-BACB-A13DEF47355A,1511563265.989017,49.27908903658354,-122.9164189412865,346.4185,1.012971,178.5662800002791,3,16,-9999,139871.7640672917,-0.06134033203125,-0.3856658935546875,-0.9776153564453125,139871.7350452917,0.06880250044608811,-0.209556156695065,0.24750194117095
2017-11-24 14:41:06.860 -0800,217,C4D50155-580C-4885-BACB-A13DEF47355A,1511563265.989017,49.27908903658354,-122.9164189412865,346.4185,1.012971,178.5662800002791,3,16,-9999,139871.7941272917,-0.0800933837890625,-0.372589111328125,-0.95751953125,139871.7651052917,0.09261781849412169,-0.3802474720220587,0.1273528959598072
2017-11-24 14:41:06.889 -0800,218,C4D50155-580C-4885-BACB-A13DEF47355A,1511563265.989017,49.27908903658354,-122.9164189412865,346.4185,1.012971,178.5662800002791,3,16,-9999,139871.8241872917,-0.0708465576171875,-0.3943634033203125,-0.988861083984375,139871.7951652917,0.2426203668928348,-0.2082906225450594,-0.1342755168973592
2017-11-24 14:41:06.921 -0800,219,C4D50155-580C-4885-BACB-A13DEF47355A,1511563265.989017,49.27908903658354,-122.9164189412865,346.4185,1.012971,178.5662800002791,3,16,-9999,139871.8542472917,-0.0621185302734375,-0.4474334716796875,-1.063125610351562,139871.8252252917,0.2360442232131021,-0.0583224289244083,-0.3605643147213921
2017-11-24 14:41:06.949 -0800,220,C4D50155-580C-4885-BACB-A13DEF47355A,1511563265.989017,49.27908903658354,-122.9164189412865,346.4185,1.012971,178.5662800002791,3,16,-9999,139871.8843072917,-0.059661865234375,-0.478363037109375,-1.181594848632812,139871.8552842917,-0.13178412969759,-0.08399823130997124,-0.3823138187118512
2017-11-24 14:41:06.979 -0800,221,C4D50155-580C-4885-BACB-A13DEF47355A,1511563265.989017,49.27908903658354,-122.9164189412865,346.4185,1.012971,178.5662800002791,3,16,-9999,139871.9143662917,-0.0371551513671875,-0.3203887939453125,-1.2415771484375,139871.8853442917,-0.5526546620393904,0.0302921258191063,-0.2707028679555024
2017-11-24 14:41:07.010 -0800,222,C4D50155-580C-4885-BACB-A13DEF47355A,1511563265.989017,49.27908903658354,-122.9164189412865,346.4185,1.012971,178.5662800002791,3,16,-9999,139871.9444262917,-0.0265655517578125,-0.2476043701171875,-1.174179077148438,139871.9154042917,-0.2008444241371978,-0.06791300464200165,-0.3931230569442647
2017-11-24 14:41:07.040 -0800,223,C4D50155-580C-4885-BACB-A13DEF47355A,1511563265.989017,49.27908903658354,-122.9164189412865,346.4185,1.012971,178.5662800002791,3,16,-9999,139871.9744862917,-0.048004150390625,-0.3376312255859375,-1.067276000976562,139871.9454642917,0.323089643442342,-0.1248540519089858,-0.6877427093853327
2017-11-24 14:41:07.081 -0800,224,C4D50155-580C-4885-BACB-A13DEF47355A,1511563265.989017,49.27908903658354,-122.9164189412865,346.4185,1.012971,178.5662800002791,3,16,-9999,139872.0045462917,-0.068206787109375,-0.3721771240234375,-0.9991302490234375,139871.9755242917,0.3321427932519574,-0.01461915648788097,-0.6288160092095855
2017-11-24 14:41:07.100 -0800,225,C4D50155-580C-4885-BACB-A13DEF47355A,1511563265.989017,49.27908903658354,-122.9164189412865,346.4185,1.012971,178.5662800002791,3,16,-9999,139872.0346062917,-0.061309814453125,-0.2973785400390625,-0.9547119140625,139872.0055832917,-0.03836922708920762,-0.03651833013160254,-0.3443131731175105
2017-11-24 14:41:07.130 -0800,226,C4D50155-580C-4885-BACB-A13DEF47355A,1511563265.989017,49.27908903658354,-122.9164189412865,346.4185,1.012971,178.5662800002791,3,16,-9999,139872.0646652917,-0.049102783203125,-0.2121734619140625,-0.8524627685546875,139872.0356432917,-0.2525827198986032,-0.2293029635457846,-0.2445128091634451
2017-11-24 14:41:07.160 -0800,227,C4D50155-580C-4885-BACB-A13DEF47355A,1511563265.989017,49.27908903658354,-122.9164189412865,346.4185,1.012971,178.5662800002791,3,16,-9999,139872.0947252917,-0.04351806640625,-0.189483642578125,-0.73504638671875,139872.0657032917,0.05947264819921352,-0.335926612528742,-0.3549258700614762
2017-11-24 14:41:07.190 -0800,228,C4D50155-580C-4885-BACB-A13DEF47355A,1511563266.988996,49.27908096297962,-122.9164135038844,346.5527,1.012971,160.9778598685793,3,16,-9999,139872.1247852917,-0.0433502197265625,-0.236907958984375,-0.649261474609375,139872.0957632917,0.4917284605172116,-0.3175284304540386,-0.5223726562324263
2017-11-24 14:41:07.220 -0800,229,C4D50155-580C-4885-BACB-A13DEF47355A,1511563266.988996,49.27908096297962,-122.9164135038844,346.5527,1.012971,160.9778598685793,3,16,-9999,139872.1548452917,-0.0384674072265625,-0.292510986328125,-0.6275787353515625,139872.1258232917,0.5975206706078463,-0.2603940376919146,-0.5702648147475393
2017-11-24 14:41:07.250 -0800,230,C4D50155-580C-4885-BACB-A13DEF47355A,1511563266.988996,49.27908096297962,-122.9164135038844,346.5527,1.012971,160.9778598685793,3,16,-9999,139872.1849052917,-0.01812744140625,-0.3018341064453125,-0.662811279296875,139872.1558832917,0.3437848019572388,-0.176115375519158,-0.5024319712543491
2017-11-24 14:41:07.280 -0800,231,C4D50155-580C-4885-BACB-A13DEF47355A,1511563266.988996,49.27908096297962,-122.9164135038844,346.5527,1.012971,160.9778598685793,3,16,-9999,139872.2149652917,0.0001068115234375,-0.31610107421875,-0.7541351318359375,139872.1859122917,0.1763742347771138,-0.09733907047461417,-0.4308898769948964
2017-11-24 14:41:07.321 -0800,232,C4D50155-580C-4885-BACB-A13DEF47355A,1511563266.988996,49.27908096297962,-122.9164135038844,346.5527,1.012971,160.9778598685793,3,16,-9999,139872.2450242917,0.018798828125,-0.3173370361328125,-0.84698486328125,139872.2159722917,0.1197706100202426,-0.05708725481082954,-0.3063439528240328
2017-11-24 14:41:07.340 -0800,233,C4D50155-580C-4885-BACB-A13DEF47355A,1511563266.988996,49.27908096297962,-122.9164135038844,346.5527,1.012971,160.9778598685793,3,16,-9999,139872.2750842917,0.0293426513671875,-0.3214569091796875,-0.90301513671875,139872.2460312917,0.08432366959517892,-0.05401689639007719,-0.1825602253571498
2017-11-24 14:41:07.370 -0800,234,C4D50155-580C-4885-BACB-A13DEF47355A,1511563266.988996,49.27908096297962,-122.9164135038844,346.5527,1.012971,160.9778598685793,3,16,-9999,139872.3051442917,0.066864013671875,-0.3852386474609375,-1.012619018554688,139872.2760912917,0.01402686946144735,0.1710748105239651,-0.1822528965673547
2017-11-24 14:41:07.404 -0800,235,C4D50155-580C-4885-BACB-A13DEF47355A,1511563266.988996,49.27908096297962,-122.9164135038844,346.5527,1.012971,160.9778598685793,3,16,-9999,139872.3352042917,0.1233673095703125,-0.4923858642578125,-1.198150634765625,139872.3061512917,-0.2509062599923984,0.4579044504604423,-0.03118401846817383
2017-11-24 14:41:07.430 -0800,236,C4D50155-580C-4885-BACB-A13DEF47355A,1511563266.988996,49.27908096297962,-122.9164135038844,346.5527,1.012971,160.9778598685793,3,16,-9999,139872.3652642917,0.1254730224609375,-0.4787139892578125,-1.300827026367188,139872.3362112917,-0.7197757436090239,0.539972422612324,0.4027711569414038
2017-11-24 14:41:07.460 -0800,237,C4D50155-580C-4885-BACB-A13DEF47355A,1511563266.988996,49.27908096297962,-122.9164135038844,346.5527,1.012971,160.9778598685793,3,16,-9999,139872.3953232917,0.0973358154296875,-0.3529205322265625,-1.33673095703125,139872.3662712917,-0.9075312636207001,0.4546910802891526,0.93085363055096
2017-11-24 14:41:07.490 -0800,238,C4D50155-580C-4885-BACB-A13DEF47355A,1511563266.988996,49.27908096297962,-122.9164135038844,346.5527,1.012971,160.9778598685793,3,16,-9999,139872.4253832917,0.042083740234375,-0.2297210693359375,-1.193008422851562,139872.3963312917,-0.6519961633376351,-0.0437528072328028,1.09815554075861
2017-11-24 14:41:07.520 -0800,239,C4D50155-580C-4885-BACB-A13DEF47355A,1511563266.988996,49.27908096297962,-122.9164135038844,346.5527,1.012971,160.9778598685793,3,16,-9999,139872.45545075,0.0186004638671875,-0.2562408447265625,-0.9962921142578125,139872.4263902917,-0.234761911148229,-0.5906960539984092,0.8344141758925747
2017-11-24 14:41:07.557 -0800,240,C4D50155-580C-4885-BACB-A13DEF47355A,1511563266.988996,49.27908096297962,-122.9164135038844,346.5527,1.012971,160.9778598685793,3,16,-9999,139872.48551075,0.0391082763671875,-0.2803802490234375,-0.90924072265625,139872.45645775,-0.2088320431946725,-0.3906569697748514,0.4301761498227552
2017-11-24 14:41:07.581 -0800,241,C4D50155-580C-4885-BACB-A13DEF47355A,1511563266.988996,49.27908096297962,-122.9164135038844,346.5527,1.012971,160.9778598685793,3,16,-9999,139872.51557075,0.0593109130859375,-0.2621612548828125,-0.909088134765625,139872.48651775,-0.22827604862945,0.1389323203794717,0.367283470151662
2017-11-24 14:41:07.611 -0800,242,C4D50155-580C-4885-BACB-A13DEF47355A,1511563266.988996,49.27908096297962,-122.9164135038844,346.5527,1.012971,160.9778598685793,3,16,-9999,139872.54563075,0.0560150146484375,-0.2476043701171875,-0.8745880126953125,139872.51657775,-0.1553059673934969,0.3160040370460772,0.3392808639216968
2017-11-24 14:41:07.644 -0800,243,C4D50155-580C-4885-BACB-A13DEF47355A,1511563266.988996,49.27908096297962,-122.9164135038844,346.5527,1.012971,160.9778598685793,3,16,-9999,139872.57565975,0.032196044921875,-0.2528839111328125,-0.771392822265625,139872.54663775,0.08709442239329736,0.1554218149009153,0.2295772691380627
2017-11-24 14:41:07.671 -0800,244,C4D50155-580C-4885-BACB-A13DEF47355A,1511563266.988996,49.27908096297962,-122.9164135038844,346.5527,1.012971,160.9778598685793,3,16,-9999,139872.60571975,-0.0136871337890625,-0.3075408935546875,-0.650787353515625,139872.57669675,0.3890620025980029,-0.0127312415911238,0.1273374496254847
2017-11-24 14:41:07.701 -0800,245,C4D50155-580C-4885-BACB-A13DEF47355A,1511563266.988996,49.27908096297962,-122.9164135038844,346.5527,1.012971,160.9778598685793,3,16,-9999,139872.63577875,-0.042022705078125,-0.3581085205078125,-0.63104248046875,139872.60675675,0.4403475609740948,0.1676281474411845,0.062782424801964
2017-11-24 14:41:07.731 -0800,246,C4D50155-580C-4885-BACB-A13DEF47355A,1511563266.988996,49.27908096297962,-122.9164135038844,346.5527,1.012971,160.9778598685793,3,16,-9999,139872.66583875,-0.044189453125,-0.3866729736328125,-0.7242584228515625,139872.63681675,0.3417935564101865,0.4330427764201165,0.1009513821771977
2017-11-24 14:41:07.761 -0800,247,C4D50155-580C-4885-BACB-A13DEF47355A,1511563266.988996,49.27908096297962,-122.9164135038844,346.5527,1.012971,160.9778598685793,3,16,-9999,139872.69589875,-0.046722412109375,-0.37774658203125,-0.8395843505859375,139872.66687675,0.09037756738514705,0.404825519406291,0.1834449274712741
2017-11-24 14:41:07.801 -0800,248,C4D50155-580C-4885-BACB-A13DEF47355A,1511563266.988996,49.27908096297962,-122.9164135038844,346.5527,1.012971,160.9778598685793,3,16,-9999,139872.72595875,-0.06817626953125,-0.3621368408203125,-0.8965606689453125,139872.69693675,-0.06498166323015143,0.2057315910536022,0.1620134049149705
2017-11-24 14:41:07.821 -0800,249,C4D50155-580C-4885-BACB-A13DEF47355A,1511563266.988996,49.27908096297962,-122.9164135038844,346.5527,1.012971,160.9778598685793,3,16,-9999,139872.75601875,-0.0655975341796875,-0.368133544921875,-0.9331207275390625,139872.72699575,0.1418125290983924,0.1311881142456303,0.04122413577777256
2017-11-24 14:41:07.851 -0800,250,C4D50155-580C-4885-BACB-A13DEF47355A,1511563266.988996,49.27908096297962,-122.9164135038844,346.5527,1.012971,160.9778598685793,3,16,-9999,139872.78607875,-0.033416748046875,-0.399993896484375,-1.017105102539062,139872.75705575,0.2973312830629866,0.1820715352971203,-0.1525293556409803
2017-11-24 14:41:07.884 -0800,251,C4D50155-580C-4885-BACB-A13DEF47355A,1511563266.988996,49.27908096297962,-122.9164135038844,346.5527,1.012971,160.9778598685793,3,16,-9999,139872.81613775,-0.0024871826171875,-0.4526824951171875,-1.15478515625,139872.78711575,0.0948191874511812,0.283462871686399,-0.246426556722776
2017-11-24 14:41:07.911 -0800,252,C4D50155-580C-4885-BACB-A13DEF47355A,1511563266.988996,49.27908096297962,-122.9164135038844,346.5527,1.012971,160.9778598685793,3,16,-9999,139872.84619775,0.007568359375,-0.4047088623046875,-1.254638671875,139872.81717575,-0.120690199544647,0.2105069052042233,-0.1016933388568937
2017-11-24 14:41:07.941 -0800,253,C4D50155-580C-4885-BACB-A13DEF47355A,1511563266.988996,49.27908096297962,-122.9164135038844,346.5527,1.012971,160.9778598685793,3,16,-9999,139872.87625775,-0.0196075439453125,-0.32989501953125,-1.224853515625,139872.84723575,-0.2731007782010097,-0.08317531453313676,-0.02545502633119538
2017-11-24 14:41:07.971 -0800,254,C4D50155-580C-4885-BACB-A13DEF47355A,1511563266.988996,49.27908096297962,-122.9164135038844,346.5527,1.012971,160.9778598685793,3,16,-9999,139872.90631775,-0.0377044677734375,-0.259429931640625,-1.138839721679688,139872.87729575,-0.2103548387059798,-0.1372489362544326,-0.1403491220793939
2017-11-24 14:41:08.001 -0800,255,C4D50155-580C-4885-BACB-A13DEF47355A,1511563266.988996,49.27908096297962,-122.9164135038844,346.5527,1.012971,160.9778598685793,3,16,-9999,139872.93637775,-0.02593994140625,-0.2542572021484375,-1.061798095703125,139872.90735475,0.07008800830426935,0.004573180223884068,-0.3134945403508955
2017-11-24 14:41:08.037 -0800,256,C4D50155-580C-4885-BACB-A13DEF47355A,1511563266.988996,49.27908096297962,-122.9164135038844,346.5527,1.012971,160.9778598685793,3,16,-9999,139872.96643675,-0.01043701171875,-0.326263427734375,-1.005950927734375,139872.93741475,0.0848909229073658,0.0620567134049174,-0.4566570258058491
2017-11-24 14:41:08.061 -0800,257,C4D50155-580C-4885-BACB-A13DEF47355A,1511563266.988996,49.27908096297962,-122.9164135038844,346.5527,1.012971,160.9778598685793,3,16,-9999,139872.99649675,-0.0101318359375,-0.3004302978515625,-0.9237060546875,139872.96747475,-0.3257418855719519,-0.07629636943746208,-0.2816553842545622
2017-11-24 14:41:08.091 -0800,258,C4D50155-580C-4885-BACB-A13DEF47355A,1511563266.988996,49.27908096297962,-122.9164135038844,346.5527,1.012971,160.9778598685793,3,16,-9999,139873.02655675,-0.0365142822265625,-0.2103729248046875,-0.80169677734375,139872.99753475,-0.6711141978549869,-0.3252502660347233,-0.03552230788391291
2017-11-24 14:41:08.122 -0800,259,C4D50155-580C-4885-BACB-A13DEF47355A,1511563266.988996,49.27908096297962,-122.9164135038844,346.5527,1.012971,160.9778598685793,3,16,-9999,139873.05661675,-0.047943115234375,-0.1431121826171875,-0.69580078125,139873.02759475,-0.5119232110632824,-0.3095924767217114,-0.09741683477844448
2017-11-24 14:41:08.152 -0800,260,C4D50155-580C-4885-BACB-A13DEF47355A,1511563267.988974,49.27907353858678,-122.916416026845,346.6291,0.8587646,149.5283591213735,3,16,-9999,139873.08667675,-0.03692626953125,-0.19970703125,-0.659332275390625,139873.05765375,0.07194636211292665,-0.05883056006039541,-0.4827123286467483
2017-11-24 14:41:08.182 -0800,261,C4D50155-580C-4885-BACB-A13DEF47355A,1511563267.988974,49.27907353858678,-122.916416026845,346.6291,0.8587646,149.5283591213735,3,16,-9999,139873.11673575,-0.0117340087890625,-0.286865234375,-0.66387939453125,139873.08771375,0.4842961105470185,0.2069244209058487,-0.711614220132367
2017-11-24 14:41:08.212 -0800,262,C4D50155-580C-4885-BACB-A13DEF47355A,1511563267.988974,49.27907353858678,-122.916416026845,346.6291,0.8587646,149.5283591213735,3,16,-9999,139873.14679575,0.0166015625,-0.327972412109375,-0.724334716796875,139873.11777375,0.4709134597532613,0.3373575289824415,-0.6456088377791891
2017-11-24 14:41:08.245 -0800,263,C4D50155-580C-4885-BACB-A13DEF47355A,1511563267.988974,49.27907353858678,-122.916416026845,346.6291,0.8587646,149.5283591213735,3,16,-9999,139873.17685575,0.0435028076171875,-0.31976318359375,-0.8065338134765625,139873.14783375,0.1682286902669974,0.2252938408407793,-0.4728027062305635
2017-11-24 14:41:08.273 -0800,264,C4D50155-580C-4885-BACB-A13DEF47355A,1511563267.988974,49.27907353858678,-122.916416026845,346.6291,0.8587646,149.5283591213735,3,16,-9999,139873.20691575,0.090606689453125,-0.2946014404296875,-0.8790283203125,139873.17789375,-0.002884736092773831,0.1268378406049859,-0.3687876235353387
2017-11-24 14:41:08.302 -0800,265,C4D50155-580C-4885-BACB-A13DEF47355A,1511563267.988974,49.27907353858678,-122.916416026845,346.6291,0.8587646,149.5283591213735,3,16,-9999,139873.23697575,0.1270904541015625,-0.3396148681640625,-0.9936981201171875,139873.20795375,0.1102324985761238,0.2580131716773838,-0.2781085863147947
2017-11-24 14:41:08.332 -0800,266,C4D50155-580C-4885-BACB-A13DEF47355A,1511563267.988974,49.27907353858678,-122.916416026845,346.6291,0.8587646,149.5283591213735,3,16,-9999,139873.26703575,0.1875,-0.3479461669921875,-1.205322265625,139873.23801275,-0.01318397897643727,0.4796318502138537,-0.01397573676851783
2017-11-24 14:41:08.362 -0800,267,C4D50155-580C-4885-BACB-A13DEF47355A,1511563267.988974,49.27907353858678,-122.916416026845,346.6291,0.8587646,149.5283591213735,3,16,-9999,139873.29709475,0.2294158935546875,-0.3251953125,-1.324005126953125,139873.26807275,-0.4493511759874347,0.3104137956018919,0.2593865638515376
2017-11-24 14:41:08.394 -0800,268,C4D50155-580C-4885-BACB-A13DEF47355A,1511563267.988974,49.27907353858678,-122.916416026845,346.6291,0.8587646,149.5283591213735,3,16,-9999,139873.32715475,0.209686279296875,-0.364715576171875,-1.285446166992188,139873.29813275,-0.5739828539453989,-0.2391803617127794,0.4291103527545055
2017-11-24 14:41:08.422 -0800,269,C4D50155-580C-4885-BACB-A13DEF47355A,1511563267.988974,49.27907353858678,-122.916416026845,346.6291,0.8587646,149.5283591213735,3,16,-9999,139873.35721475,0.1599578857421875,-0.3414764404296875,-1.232879638671875,139873.32816175,-0.6589938854179274,-0.3275040992652574,0.7187296539328407
2017-11-24 14:41:08.452 -0800,270,C4D50155-580C-4885-BACB-A13DEF47355A,1511563267.988974,49.27907353858678,-122.916416026845,346.6291,0.8587646,149.5283591213735,3,16,-9999,139873.38727475,0.1199798583984375,-0.2241058349609375,-1.178909301757812,139873.35822175,-0.5767850320443804,-0.1338550037612357,0.9355466530238977
2017-11-24 14:41:08.482 -0800,271,C4D50155-580C-4885-BACB-A13DEF47355A,1511563267.988974,49.27907353858678,-122.916416026845,346.6291,0.8587646,149.5283591213735,3,16,-9999,139873.41733475,0.1012115478515625,-0.1738128662109375,-1.055831909179688,139873.38828175,-0.2200631261437546,-0.2225598396657039,0.8377010493099505
2017-11-24 14:41:08.518 -0800,272,C4D50155-580C-4885-BACB-A13DEF47355A,1511563267.988974,49.27907353858678,-122.916416026845,346.6291,0.8587646,149.5283591213735,3,16,-9999,139873.44739375,0.113525390625,-0.196380615234375,-0.9581451416015625,139873.41834175,-0.1036100158934238,-0.1851730527026265,0.5081263422971565
2017-11-24 14:41:08.543 -0800,273,C4D50155-580C-4885-BACB-A13DEF47355A,1511563267.988974,49.27907353858678,-122.916416026845,346.6291,0.8587646,149.5283591213735,3,16,-9999,139873.47743225,0.114227294921875,-0.2063446044921875,-0.9293060302734375,139873.44838025,-0.2376218798428651,0.1092777553253304,0.3457688569693478
2017-11-24 14:41:08.572 -0800,274,C4D50155-580C-4885-BACB-A13DEF47355A,1511563267.988974,49.27907353858678,-122.916416026845,346.6291,0.8587646,149.5283591213735,3,16,-9999,139873.50749225,0.0962371826171875,-0.184783935546875,-0.871673583984375,139873.47843925,-0.1744114850537253,0.2481781177717212,0.3153667425972213
2017-11-24 14:41:08.603 -0800,275,C4D50155-580C-4885-BACB-A13DEF47355A,1511563267.988974,49.27907353858678,-122.916416026845,346.6291,0.8587646,149.5283591213735,3,16,-9999,139873.53755225,0.050689697265625,-0.2151336669921875,-0.7388916015625,139873.50849925,0.2412696115879466,0.09891219973052398,0.1865592280500128
2017-11-24 14:41:08.633 -0800,276,C4D50155-580C-4885-BACB-A13DEF47355A,1511563267.988974,49.27907353858678,-122.916416026845,346.6291,0.8587646,149.5283591213735,3,16,-9999,139873.56761225,0.017333984375,-0.2758026123046875,-0.64642333984375,139873.53855925,0.5497763175332328,0.06235152533758917,0.05816982979394675
2017-11-24 14:41:08.663 -0800,277,C4D50155-580C-4885-BACB-A13DEF47355A,1511563267.988974,49.27907353858678,-122.916416026845,346.6291,0.8587646,149.5283591213735,3,16,-9999,139873.59767225,-0.0054168701171875,-0.3306427001953125,-0.6492919921875,139873.56861925,0.5354274718959948,0.1886380915969286,0.0624633781033725
2017-11-24 14:41:08.694 -0800,278,C4D50155-580C-4885-BACB-A13DEF47355A,1511563267.988974,49.27907353858678,-122.916416026845,346.6291,0.8587646,149.5283591213735,3,16,-9999,139873.62773125,-0.0180206298828125,-0.3420562744140625,-0.7077484130859375,139873.59867925,0.2890144972947782,0.2028058422800412,0.1738666022946951
2017-11-24 14:41:08.723 -0800,279,C4D50155-580C-4885-BACB-A13DEF47355A,1511563267.988974,49.27907353858678,-122.916416026845,346.6291,0.8587646,149.5283591213735,3,16,-9999,139873.65779125,-0.0282745361328125,-0.3339996337890625,-0.8014373779296875,139873.62873825,0.037877873868088,0.2160579981803845,0.1979719385854384
2017-11-24 14:41:08.766 -0800,280,C4D50155-580C-4885-BACB-A13DEF47355A,1511563267.988974,49.27907353858678,-122.916416026845,346.6291,0.8587646,149.5283591213735,3,16,-9999,139873.68785125,-0.0347137451171875,-0.350860595703125,-0.8757171630859375,139873.65879825,0.1105885632138674,0.2468366835306482,0.08772079788168399
2017-11-24 14:41:08.783 -0800,281,C4D50155-580C-4885-BACB-A13DEF47355A,1511563267.988974,49.27907353858678,-122.916416026845,346.6291,0.8587646,149.5283591213735,3,16,-9999,139873.71791125,-0.0318450927734375,-0.368499755859375,-0.9368896484375,139873.68885825,0.2881614867976258,0.1892940281734151,-0.006979612584879668
2017-11-24 14:41:08.813 -0800,282,C4D50155-580C-4885-BACB-A13DEF47355A,1511563267.988974,49.27907353858678,-122.916416026845,346.6291,0.8587646,149.5283591213735,3,16,-9999,139873.74794025,-0.01812744140625,-0.381072998046875,-0.9854278564453125,139873.71891825,0.2347864122302577,0.02943565321253681,-0.1604346830207715
2017-11-24 14:41:08.846 -0800,283,C4D50155-580C-4885-BACB-A13DEF47355A,1511563267.988974,49.27907353858678,-122.916416026845,346.6291,0.8587646,149.5283591213735,3,16,-9999,139873.77800025,0.012115478515625,-0.4134521484375,-1.059982299804688,139873.74897825,0.11639159122915,-0.03261546755409142,-0.3456974842521337
2017-11-24 14:41:08.873 -0800,284,C4D50155-580C-4885-BACB-A13DEF47355A,1511563267.988974,49.27907353858678,-122.916416026845,346.6291,0.8587646,149.5283591213735,3,16,-9999,139873.80806025,0.03857421875,-0.450286865234375,-1.17919921875,139873.77903725,-0.07207525910968648,0.02086213871524472,-0.3511788024077348
2017-11-24 14:41:08.904 -0800,285,C4D50155-580C-4885-BACB-A13DEF47355A,1511563267.988974,49.27907353858678,-122.916416026845,346.6291,0.8587646,149.5283591213735,3,16,-9999,139873.83812025,0.0553741455078125,-0.363616943359375,-1.286636352539062,139873.80909725,-0.4928632334576944,0.204985373316162,-0.113902867190471
2017-11-24 14:41:08.933 -0800,286,C4D50155-580C-4885-BACB-A13DEF47355A,1511563267.988974,49.27907353858678,-122.916416026845,346.6291,0.8587646,149.5283591213735,3,16,-9999,139873.86817925,0.0641937255859375,-0.20556640625,-1.290863037109375,139873.83915725,-0.6327042244011011,0.2295122880074648,0.006939665168528479
2017-11-24 14:41:08.963 -0800,287,C4D50155-580C-4885-BACB-A13DEF47355A,1511563267.988974,49.27907353858678,-122.916416026845,346.6291,0.8587646,149.5283591213735,3,16,-9999,139873.89823925,0.0446319580078125,-0.1886138916015625,-1.175796508789062,139873.86921725,-0.1091384720003192,-0.06103885323628912,-0.1670094951199591
2017-11-24 14:41:08.998 -0800,288,C4D50155-580C-4885-BACB-A13DEF47355A,1511563267.988974,49.27907353858678,-122.916416026845,346.6291,0.8587646,149.5283591213735,3,16,-9999,139873.92829925,0.0387725830078125,-0.2672882080078125,-1.042694091796875,139873.89927725,0.2036002632332118,-0.1737161336931057,-0.4805562334282202
2017-11-24 14:41:09.023 -0800,289,C4D50155-580C-4885-BACB-A13DEF47355A,1511563267.988974,49.27907353858678,-122.916416026845,346.6291,0.8587646,149.5283591213735,3,16,-9999,139873.95835925,0.0360870361328125,-0.290252685546875,-0.9680328369140625,139873.92933725,0.01617577414503229,-0.1053948664559949,-0.4806648904006954
2017-11-24 14:41:09.053 -0800,290,C4D50155-580C-4885-BACB-A13DEF47355A,1511563267.988974,49.27907353858678,-122.916416026845,346.6291,0.8587646,149.5283591213735,3,16,-9999,139873.98841925,0.014373779296875,-0.2273406982421875,-0.8553009033203125,139873.95939625,-0.4089563485731129,-0.2862743708491957,-0.2294606226823172
2017-11-24 14:41:09.084 -0800,291,C4D50155-580C-4885-BACB-A13DEF47355A,1511563267.988974,49.27907353858678,-122.916416026845,346.6291,0.8587646,149.5283591213735,3,16,-9999,139874.01847825,0.0040283203125,-0.1462249755859375,-0.7401275634765625,139873.98945625,-0.6112474018144417,-0.4779244976390039,-0.1943116899832334
2017-11-24 14:41:09.113 -0800,292,C4D50155-580C-4885-BACB-A13DEF47355A,1511563267.988974,49.27907353858678,-122.916416026845,346.6291,0.8587646,149.5283591213735,3,16,-9999,139874.04853825,-0.0029754638671875,-0.1598052978515625,-0.65167236328125,139874.01951625,-0.1862886508832607,-0.3766010718575222,-0.4584733016692832
2017-11-24 14:41:09.144 -0800,293,C4D50155-580C-4885-BACB-A13DEF47355A,1511563267.988974,49.27907353858678,-122.916416026845,346.6291,0.8587646,149.5283591213735,3,16,-9999,139874.07859825,0.0164337158203125,-0.239715576171875,-0.654815673828125,139874.04957625,0.3708699491916717,-0.03368446041564923,-0.7057829626095294
2017-11-24 14:41:09.174 -0800,294,C4D50155-580C-4885-BACB-A13DEF47355A,1511563268.988954,49.27907069154335,-122.9164180004238,346.6596,0.8587646,133.5629831817655,3,16,-9999,139874.10865825,0.033599853515625,-0.2962799072265625,-0.722503662109375,139874.07963625,0.5334993432667774,0.2333392504939086,-0.710641101070052
2017-11-24 14:41:09.204 -0800,295,C4D50155-580C-4885-BACB-A13DEF47355A,1511563268.988954,49.27907069154335,-122.9164180004238,346.6596,0.8587646,133.5629831817655,3,16,-9999,139874.13871825,0.0410308837890625,-0.2944488525390625,-0.802215576171875,139874.10969525,0.3672158258599739,0.2259553700555549,-0.4999653514527177
2017-11-24 14:41:09.237 -0800,296,C4D50155-580C-4885-BACB-A13DEF47355A,1511563268.988954,49.27907069154335,-122.9164180004238,346.6596,0.8587646,133.5629831817655,3,16,-9999,139874.16877725,0.0679168701171875,-0.2550506591796875,-0.903961181640625,139874.13975525,0.1402820104199239,0.03621632766398756,-0.2929775473129251
2017-11-24 14:41:09.264 -0800,297,C4D50155-580C-4885-BACB-A13DEF47355A,1511563268.988954,49.27907069154335,-122.9164180004238,346.6596,0.8587646,133.5629831817655,3,16,-9999,139874.19883725,0.0699005126953125,-0.23980712890625,-0.9329681396484375,139874.16981525,0.03347034226400686,-0.2766798003899672,-0.2074346825707079
2017-11-24 14:41:09.294 -0800,298,C4D50155-580C-4885-BACB-A13DEF47355A,1511563268.988954,49.27907069154335,-122.9164180004238,346.6596,0.8587646,133.5629831817655,3,16,-9999,139874.22889725,0.1041717529296875,-0.2443084716796875,-0.986785888671875,139874.19987525,0.06305912723922323,-0.204649815018812,-0.1726814956096099
2017-11-24 14:41:09.324 -0800,299,C4D50155-580C-4885-BACB-A13DEF47355A,1511563268.988954,49.27907069154335,-122.9164180004238,346.6596,0.8587646,133.5629831817655,3,16,-9999,139874.25895725,0.1674041748046875,-0.263275146484375,-1.206985473632812,139874.22993525,-0.05586273334161111,0.2707947470131101,-0.07163477226538738
2017-11-24 14:41:09.354 -0800,300,C4D50155-580C-4885-BACB-A13DEF47355A,1511563268.988954,49.27907069154335,-122.9164180004238,346.6596,0.8587646,133.5629831817655,3,16,-9999,139874.28901725,0.2176055908203125,-0.2610321044921875,-1.33538818359375,139874.25999525,-0.2819408751234187,0.2083904910859373,0.126104406040778
2017-11-24 14:41:09.385 -0800,301,C4D50155-580C-4885-BACB-A13DEF47355A,1511563268.988954,49.27907069154335,-122.9164180004238,346.6596,0.8587646,133.5629831817655,3,16,-9999,139874.31907725,0.1789703369140625,-0.3070220947265625,-1.3187255859375,139874.29005425,-0.4439534810900622,-0.2807568337027695,0.3697293172967907
2017-11-24 14:41:09.414 -0800,302,C4D50155-580C-4885-BACB-A13DEF47355A,1511563268.988954,49.27907069154335,-122.9164180004238,346.6596,0.8587646,133.5629831817655,3,16,-9999,139874.34913625,0.0924530029296875,-0.232879638671875,-1.202056884765625,139874.32011425,-0.5956332883433071,-0.6078582630112068,0.7862258738642449
2017-11-24 14:41:09.444 -0800,303,C4D50155-580C-4885-BACB-A13DEF47355A,1511563268.988954,49.27907069154335,-122.9164180004238,346.6596,0.8587646,133.5629831817655,3,16,-9999,139874.37919625,0.0503692626953125,-0.133056640625,-1.059722900390625,139874.35017425,-0.4607476412402108,-0.6623816926406171,0.8587794367057097
2017-11-24 14:41:09.476 -0800,304,C4D50155-580C-4885-BACB-A13DEF47355A,1511563268.988954,49.27907069154335,-122.9164180004238,346.6596,0.8587646,133.5629831817655,3,16,-9999,139874.40925625,0.083831787109375,-0.0990753173828125,-0.9720611572265625,139874.38023425,-0.2295913838918401,-0.3482272209716,0.4671179225676804
2017-11-24 14:41:09.504 -0800,305,C4D50155-580C-4885-BACB-A13DEF47355A,1511563268.988954,49.27907069154335,-122.9164180004238,346.6596,0.8587646,133.5629831817655,3,16,-9999,139874.43931625,0.135894775390625,-0.1243743896484375,-0.9548492431640625,139874.41029425,-0.09451292392582208,0.1603057860240117,0.07627666204539549
2017-11-24 14:41:09.534 -0800,306,C4D50155-580C-4885-BACB-A13DEF47355A,1511563268.988954,49.27907069154335,-122.9164180004238,346.6596,0.8587646,133.5629831817655,3,16,-9999,139874.469358,0.129180908203125,-0.19940185546875,-0.9112396240234375,139874.44035325,-0.07111598848503994,0.3578553472605635,-0.08659587863723453
2017-11-24 14:41:09.564 -0800,307,C4D50155-580C-4885-BACB-A13DEF47355A,1511563268.988954,49.27907069154335,-122.9164180004238,346.6596,0.8587646,133.5629831817655,3,16,-9999,139874.499417,0.108001708984375,-0.2442626953125,-0.7923126220703125,139874.470395,-0.04716058816366819,0.2602686028045719,-0.1385008882828789
2017-11-24 14:41:09.595 -0800,308,C4D50155-580C-4885-BACB-A13DEF47355A,1511563268.988954,49.27907069154335,-122.9164180004238,346.6596,0.8587646,133.5629831817655,3,16,-9999,139874.529477,0.087127685546875,-0.279296875,-0.6849822998046875,139874.500425,0.1145572058703035,0.2026875979276417,-0.1856361764161913
2017-11-24 14:41:09.640 -0800,309,C4D50155-580C-4885-BACB-A13DEF47355A,1511563268.988954,49.27907069154335,-122.9164180004238,346.6596,0.8587646,133.5629831817655,3,16,-9999,139874.559537,0.0543212890625,-0.315155029296875,-0.647552490234375,139874.530484,0.1578404978029253,0.1876210303766274,-0.1104263767034816
2017-11-24 14:41:09.655 -0800,310,C4D50155-580C-4885-BACB-A13DEF47355A,1511563268.988954,49.27907069154335,-122.9164180004238,346.6596,0.8587646,133.5629831817655,3,16,-9999,139874.589597,0.036102294921875,-0.361846923828125,-0.68255615234375,139874.560544,0.180516781852732,0.2947096672859126,-0.0948596674997504
2017-11-24 14:41:09.685 -0800,311,C4D50155-580C-4885-BACB-A13DEF47355A,1511563268.988954,49.27907069154335,-122.9164180004238,346.6596,0.8587646,133.5629831817655,3,16,-9999,139874.619657,0.03167724609375,-0.4280853271484375,-0.7814483642578125,139874.590604,0.2076256312208666,0.4292909150764129,-0.02490534988220302
2017-11-24 14:41:09.718 -0800,312,C4D50155-580C-4885-BACB-A13DEF47355A,1511563268.988954,49.27907069154335,-122.9164180004238,346.6596,0.8587646,133.5629831817655,3,16,-9999,139874.649716,0.0420684814453125,-0.4409027099609375,-0.9187469482421875,139874.620664,0.07498422996838004,0.4421140357251444,0.106677178520868
2017-11-24 14:41:09.745 -0800,313,C4D50155-580C-4885-BACB-A13DEF47355A,1511563268.988954,49.27907069154335,-122.9164180004238,346.6596,0.8587646,133.5629831817655,3,16,-9999,139874.679776,0.0301055908203125,-0.4287109375,-1.003921508789062,139874.650724,-0.05708086322421335,0.1908152257880684,0.1908383952895521
2017-11-24 14:41:09.775 -0800,314,C4D50155-580C-4885-BACB-A13DEF47355A,1511563268.988954,49.27907069154335,-122.9164180004238,346.6596,0.8587646,133.5629831817655,3,16,-9999,139874.709836,0.020721435546875,-0.4138641357421875,-1.0191650390625,139874.680783,-0.006590791065728099,-0.07555734223496509,0.1549693438317109
2017-11-24 14:41:09.805 -0800,315,C4D50155-580C-4885-BACB-A13DEF47355A,1511563268.988954,49.27907069154335,-122.9164180004238,346.6596,0.8587646,133.5629831817655,3,16,-9999,139874.739896,0.0294952392578125,-0.3995361328125,-1.025680541992188,139874.710843,0.1777114079604425,-0.09376217881452875,-0.001195759329445578
2017-11-24 14:41:09.835 -0800,316,C4D50155-580C-4885-BACB-A13DEF47355A,1511563268.988954,49.27907069154335,-122.9164180004238,346.6596,0.8587646,133.5629831817655,3,16,-9999,139874.769956,0.0457916259765625,-0.3989715576171875,-1.103012084960938,139874.740903,0.2207880385924742,0.124993068917888,-0.1827967140619488
2017-11-24 14:41:09.882 -0800,317,C4D50155-580C-4885-BACB-A13DEF47355A,1511563268.988954,49.27907069154335,-122.9164180004238,346.6596,0.8587646,133.5629831817655,3,16,-9999,139874.800016,0.098602294921875,-0.36767578125,-1.280792236328125,139874.770963,-0.01673130954842281,0.3091171024671323,-0.2090762550666327
2017-11-24 14:41:09.895 -0800,318,C4D50155-580C-4885-BACB-A13DEF47355A,1511563268.988954,49.27907069154335,-122.9164180004238,346.6596,0.8587646,133.5629831817655,3,16,-9999,139874.830075,0.125274658203125,-0.2288665771484375,-1.423858642578125,139874.801023,-0.5832743566725764,0.4354372245562068,-0.1203354664874484
2017-11-24 14:41:09.927 -0800,319,C4D50155-580C-4885-BACB-A13DEF47355A,1511563268.988954,49.27907069154335,-122.9164180004238,346.6596,0.8587646,133.5629831817655,3,16,-9999,139874.860135,0.114593505859375,-0.0907135009765625,-1.315811157226562,139874.831082,-0.2708807671163196,0.1281361316363995,-0.1376369588252572
2017-11-24 14:41:09.957 -0800,320,C4D50155-580C-4885-BACB-A13DEF47355A,1511563268.988954,49.27907069154335,-122.9164180004238,346.6596,0.8587646,133.5629831817655,3,16,-9999,139874.890164,0.072509765625,-0.1820526123046875,-1.113296508789062,139874.861142,0.4803042983890987,-0.3993982634208185,-0.3951593099137394
2017-11-24 14:41:09.985 -0800,321,C4D50155-580C-4885-BACB-A13DEF47355A,1511563268.988954,49.27907069154335,-122.9164180004238,346.6596,0.8587646,133.5629831817655,3,16,-9999,139874.920224,0.0536956787109375,-0.26409912109375,-0.9965362548828125,139874.891202,0.4205610730231331,-0.3470407827059697,-0.5471565659689218
2017-11-24 14:41:10.015 -0800,322,C4D50155-580C-4885-BACB-A13DEF47355A,1511563268.988954,49.27907069154335,-122.9164180004238,346.6596,0.8587646,133.5629831817655,3,16,-9999,139874.950284,0.025848388671875,-0.2281951904296875,-0.9255523681640625,139874.921262,0.08987822468075718,-0.2490705430530067,-0.3031055489384964
2017-11-24 14:41:10.046 -0800,323,C4D50155-580C-4885-BACB-A13DEF47355A,1511563268.988954,49.27907069154335,-122.9164180004238,346.6596,0.8587646,133.5629831817655,3,16,-9999,139874.980344,-0.007110595703125,-0.15771484375,-0.8211517333984375,139874.951322,-0.1046193539465638,-0.4219637599692779,-0.05825451831661127
2017-11-24 14:41:10.077 -0800,324,C4D50155-580C-4885-BACB-A13DEF47355A,1511563268.988954,49.27907069154335,-122.9164180004238,346.6596,0.8587646,133.5629831817655,3,16,-9999,139875.010404,-0.0085601806640625,-0.113250732421875,-0.7200775146484375,139874.981382,-0.007835552559231134,-0.443243748659556,-0.1586146787318113
2017-11-24 14:41:10.121 -0800,325,C4D50155-580C-4885-BACB-A13DEF47355A,1511563268.988954,49.27907069154335,-122.9164180004238,346.6596,0.8587646,133.5629831817655,3,16,-9999,139875.040464,-0.0055389404296875,-0.1628875732421875,-0.6598663330078125,139875.011441,0.3910194259992112,-0.3131813526067022,-0.4444597480132862
2017-11-24 14:41:10.136 -0800,326,C4D50155-580C-4885-BACB-A13DEF47355A,1511563268.988954,49.27907069154335,-122.9164180004238,346.6596,0.8587646,133.5629831817655,3,16,-9999,139875.070523,0.0040740966796875,-0.2301788330078125,-0.669097900390625,139875.041501,0.6717493617749708,-0.1363381351616255,-0.6228329515046134
2017-11-24 14:41:10.166 -0800,327,C4D50155-580C-4885-BACB-A13DEF47355A,1511563269.988933,49.27906867134103,-122.9164169642958,346.6667,0.8587646,132.2774322969424,3,16,-9999,139875.100583,0.00927734375,-0.2861175537109375,-0.695343017578125,139875.071561,0.5809992181533217,-0.1414442139196345,-0.6213319939142448
2017-11-24 14:41:10.200 -0800,328,C4D50155-580C-4885-BACB-A13DEF47355A,1511563269.988933,49.27906867134103,-122.9164169642958,346.6667,0.8587646,132.2774322969424,3,16,-9999,139875.130643,0.024749755859375,-0.29571533203125,-0.75579833984375,139875.101621,0.2996066878983503,-0.1908144268397414,-0.5394435188198343
2017-11-24 14:41:10.226 -0800,329,C4D50155-580C-4885-BACB-A13DEF47355A,1511563269.988933,49.27906867134103,-122.9164169642958,346.6667,0.8587646,132.2774322969424,3,16,-9999,139875.160703,0.055633544921875,-0.308502197265625,-0.87353515625,139875.131681,0.1706849237403775,-0.1842358863150277,-0.4918251332647815
2017-11-24 14:41:10.256 -0800,330,C4D50155-580C-4885-BACB-A13DEF47355A,1511563269.988933,49.27906867134103,-122.9164169642958,346.6667,0.8587646,132.2774322969424,3,16,-9999,139875.190763,0.1108551025390625,-0.3338165283203125,-0.9687957763671875,139875.16174,0.1221738465879301,-0.2351608526795228,-0.4247795201898186
2017-11-24 14:41:10.286 -0800,331,C4D50155-580C-4885-BACB-A13DEF47355A,1511563269.988933,49.27906867134103,-122.9164169642958,346.6667,0.8587646,132.2774322969424,3,16,-9999,139875.220822,0.1365966796875,-0.355499267578125,-1.019699096679688,139875.1918,-0.03842648505264432,-0.2732003804257787,-0.2959634835271219
2017-11-24 14:41:10.316 -0800,332,C4D50155-580C-4885-BACB-A13DEF47355A,1511563269.988933,49.27906867134103,-122.9164169642958,346.6667,0.8587646,132.2774322969424,3,16,-9999,139875.250882,0.1609649658203125,-0.376190185546875,-1.159713745117188,139875.22186,-0.1280724820863466,0.191440003379801,-0.1114474326654179
2017-11-24 14:41:10.367 -0800,333,C4D50155-580C-4885-BACB-A13DEF47355A,1511563269.988933,49.27906867134103,-122.9164169642958,346.6667,0.8587646,132.2774322969424,3,16,-9999,139875.280942,0.191192626953125,-0.3875732421875,-1.2684326171875,139875.25192,-0.06251291289964797,0.4093819217153075,0.2008369672861456
2017-11-24 14:41:10.376 -0800,334,C4D50155-580C-4885-BACB-A13DEF47355A,1511563269.988933,49.27906867134103,-122.9164169642958,346.6667,0.8587646,132.2774322969424,3,16,-9999,139875.311002,0.1424407958984375,-0.3703460693359375,-1.213912963867188,139875.28198,-0.269044251228601,0.0739682340125148,0.5822671491483085
2017-11-24 14:41:10.406 -0800,335,C4D50155-580C-4885-BACB-A13DEF47355A,1511563269.988933,49.27906867134103,-122.9164169642958,346.6667,0.8587646,132.2774322969424,3,16,-9999,139875.341062,0.0901336669921875,-0.2772064208984375,-1.10626220703125,139875.312039,-0.4714980236125337,-0.1997858176038913,0.8799036304722182
2017-11-24 14:41:10.443 -0800,336,C4D50155-580C-4885-BACB-A13DEF47355A,1511563269.988933,49.27906867134103,-122.9164169642958,346.6667,0.8587646,132.2774322969424,3,16,-9999,139875.371122,0.07330322265625,-0.21575927734375,-1.04461669921875,139875.342099,-0.2688261383353235,-0.1461508185141315,0.8976045969735388
2017-11-24 14:41:10.466 -0800,337,C4D50155-580C-4885-BACB-A13DEF47355A,1511563269.988933,49.27906867134103,-122.9164169642958,346.6667,0.8587646,132.2774322969424,3,16,-9999,139875.401181,0.1264801025390625,-0.176361083984375,-1.058486938476562,139875.372159,-0.1922565285700193,0.1850691894201134,0.6700992671635577
2017-11-24 14:41:10.496 -0800,338,C4D50155-580C-4885-BACB-A13DEF47355A,1511563269.988933,49.27906867134103,-122.9164169642958,346.6667,0.8587646,132.2774322969424,3,16,-9999,139875.431241,0.168548583984375,-0.1944732666015625,-1.036285400390625,139875.402219,-0.2910206565439349,0.3490804977848613,0.4144890657377525
2017-11-24 14:41:10.527 -0800,339,C4D50155-580C-4885-BACB-A13DEF47355A,1511563269.988933,49.27906867134103,-122.9164169642958,346.6667,0.8587646,132.2774322969424,3,16,-9999,139875.461284375,0.1501922607421875,-0.1972503662109375,-0.910003662109375,139875.432279,-0.3459560771939804,0.161525780119377,0.3343209927075332
2017-11-24 14:41:10.556 -0800,340,C4D50155-580C-4885-BACB-A13DEF47355A,1511563269.988933,49.27906867134103,-122.9164169642958,346.6667,0.8587646,132.2774322969424,3,16,-9999,139875.491344375,0.10504150390625,-0.22149658203125,-0.7506256103515625,139875.462322375,-0.04365293869192483,0.02203419591098859,0.2225848733799507
2017-11-24 14:41:10.599 -0800,341,C4D50155-580C-4885-BACB-A13DEF47355A,1511563269.988933,49.27906867134103,-122.9164169642958,346.6667,0.8587646,132.2774322969424,3,16,-9999,139875.521404375,0.0662078857421875,-0.271942138671875,-0.63934326171875,139875.492381375,0.3931249211570278,0.0849010429195081,0.109568306200258
2017-11-24 14:41:10.617 -0800,342,C4D50155-580C-4885-BACB-A13DEF47355A,1511563269.988933,49.27906867134103,-122.9164169642958,346.6667,0.8587646,132.2774322969424,3,16,-9999,139875.551463375,0.0337982177734375,-0.342987060546875,-0.625030517578125,139875.522441375,0.5734502217273831,0.2457932570155552,0.09840007385290174
2017-11-24 14:41:10.647 -0800,343,C4D50155-580C-4885-BACB-A13DEF47355A,1511563269.988933,49.27906867134103,-122.9164169642958,346.6667,0.8587646,132.2774322969424,3,16,-9999,139875.581523375,0.002655029296875,-0.3693695068359375,-0.6680755615234375,139875.552501375,0.3436479154772087,0.2980676471043935,0.2442347751456408
2017-11-24 14:41:10.682 -0800,344,C4D50155-580C-4885-BACB-A13DEF47355A,1511563269.988933,49.27906867134103,-122.9164169642958,346.6667,0.8587646,132.2774322969424,3,16,-9999,139875.611583375,-0.0105438232421875,-0.330780029296875,-0.7643890380859375,139875.582561375,-0.09458429664303621,0.2394152525209244,0.3785049657208198
2017-11-24 14:41:10.707 -0800,345,C4D50155-580C-4885-BACB-A13DEF47355A,1511563269.988933,49.27906867134103,-122.9164169642958,346.6667,0.8587646,132.2774322969424,3,16,-9999,139875.641643375,-0.01593017578125,-0.3386688232421875,-0.828125,139875.612621375,-0.1657873704957217,0.1177162475553555,0.2747977444476082
2017-11-24 14:41:10.737 -0800,346,C4D50155-580C-4885-BACB-A13DEF47355A,1511563269.988933,49.27906867134103,-122.9164169642958,346.6667,0.8587646,132.2774322969424,3,16,-9999,139875.671703375,-0.031280517578125,-0.4002227783203125,-0.8665924072265625,139875.642680375,0.08657191018742381,0.0293445731032561,0.111213074489491
2017-11-24 14:41:10.770 -0800,347,C4D50155-580C-4885-BACB-A13DEF47355A,1511563269.988933,49.27906867134103,-122.9164169642958,346.6667,0.8587646,132.2774322969424,3,16,-9999,139875.701762375,-0.032470703125,-0.42034912109375,-0.9218597412109375,139875.672710375,0.1392316596859966,0.1047293424995841,0.00176248000941444
2017-11-24 14:41:10.797 -0800,348,C4D50155-580C-4885-BACB-A13DEF47355A,1511563269.988933,49.27906867134103,-122.9164169642958,346.6667,0.8587646,132.2774322969424,3,16,-9999,139875.731822375,-0.0063323974609375,-0.42828369140625,-1.017929077148438,139875.702770375,0.05473861304548866,0.2324252536077935,-0.1186049444111149
2017-11-24 14:41:10.850 -0800,349,C4D50155-580C-4885-BACB-A13DEF47355A,1511563269.988933,49.27906867134103,-122.9164169642958,346.6667,0.8587646,132.2774322969424,3,16,-9999,139875.761882375,0.0340423583984375,-0.4585418701171875,-1.203994750976562,139875.732829375,-0.1421289126358938,0.3655604049263807,-0.1644629804856253
2017-11-24 14:41:10.857 -0800,350,C4D50155-580C-4885-BACB-A13DEF47355A,1511563269.988933,49.27906867134103,-122.9164169642958,346.6667,0.8587646,132.2774322969424,3,16,-9999,139875.791942375,0.05999755859375,-0.397308349609375,-1.314788818359375,139875.762889375,-0.4774999897612452,0.1815673989027683,-0.08708749817446315
2017-11-24 14:41:10.887 -0800,351,C4D50155-580C-4885-BACB-A13DEF47355A,1511563269.988933,49.27906867134103,-122.9164169642958,346.6667,0.8587646,132.2774322969424,3,16,-9999,139875.822002375,0.009918212890625,-0.300079345703125,-1.2589111328125,139875.792949375,-0.5374783722514648,-0.2820423415609507,-0.03720222989953489
2017-11-24 14:41:10.930 -0800,352,C4D50155-580C-4885-BACB-A13DEF47355A,1511563269.988933,49.27906867134103,-122.9164169642958,346.6667,0.8587646,132.2774322969424,3,16,-9999,139875.852062375,-0.0332794189453125,-0.21099853515625,-1.127731323242188,139875.823009375,-0.273078673963962,-0.5338293089258382,-0.2062762074965234
2017-11-24 14:41:10.947 -0800,353,C4D50155-580C-4885-BACB-A13DEF47355A,1511563269.988933,49.27906867134103,-122.9164169642958,346.6667,0.8587646,132.2774322969424,3,16,-9999,139875.882121375,-0.0064544677734375,-0.159027099609375,-1.043212890625,139875.853069375,-0.04687989098477384,-0.3354919846388411,-0.4834489590042643
2017-11-24 14:41:10.977 -0800,354,C4D50155-580C-4885-BACB-A13DEF47355A,1511563269.988933,49.27906867134103,-122.9164169642958,346.6667,0.8587646,132.2774322969424,3,16,-9999,139875.912181375,0.0431671142578125,-0.2092132568359375,-1.032577514648438,139875.883128375,0.1055184371305745,0.03807388252431783,-0.7583724046553242
2017-11-24 14:41:11.007 -0800,355,C4D50155-580C-4885-BACB-A13DEF47355A,1511563269.988933,49.27906867134103,-122.9164169642958,346.6667,0.8587646,132.2774322969424,3,16,-9999,139875.942241375,0.06451416015625,-0.2567138671875,-1.005447387695312,139875.913188375,0.03320828721274306,0.04453178185165097,-0.7139620629493808
2017-11-24 14:41:11.037 -0800,356,C4D50155-580C-4885-BACB-A13DEF47355A,1511563269.988933,49.27906867134103,-122.9164169642958,346.6667,0.8587646,132.2774322969424,3,16,-9999,139875.972301375,0.0615386962890625,-0.2214813232421875,-0.9324188232421875,139875.943248375,-0.348597932995339,-0.1587494346829693,-0.4471218438389294
2017-11-24 14:41:11.081 -0800,357,C4D50155-580C-4885-BACB-A13DEF47355A,1511563269.988933,49.27906867134103,-122.9164169642958,346.6667,0.8587646,132.2774322969424,3,16,-9999,139876.002361375,0.055023193359375,-0.1440582275390625,-0.792633056640625,139875.973308375,-0.4206460278619067,-0.3986648288566106,-0.2629168501925467
2017-11-24 14:41:11.097 -0800,358,C4D50155-580C-4885-BACB-A13DEF47355A,1511563269.988933,49.27906867134103,-122.9164169642958,346.6667,0.8587646,132.2774322969424,3,16,-9999,139876.032390375,0.042510986328125,-0.1710968017578125,-0.654937744140625,139876.003368375,0.008760734721924662,-0.4694053116279494,-0.417869149793281
2017-11-24 14:41:11.128 -0800,359,C4D50155-580C-4885-BACB-A13DEF47355A,1511563269.988933,49.27906867134103,-122.9164169642958,346.6667,0.8587646,132.2774322969424,3,16,-9999,139876.062450375,0.0483856201171875,-0.2637939453125,-0.6188201904296875,139876.033428375,0.3738130085123182,-0.2576624333618203,-0.643521452116785
2017-11-24 14:41:11.161 -0800,360,C4D50155-580C-4885-BACB-A13DEF47355A,1511563269.988933,49.27906867134103,-122.9164169642958,346.6667,0.8587646,132.2774322969424,3,16,-9999,139876.092510375,0.0426483154296875,-0.2992401123046875,-0.642364501953125,139876.063487375,0.366244304694313,-0.07099374939100531,-0.5868445904299366
2017-11-24 14:41:11.188 -0800,361,C4D50155-580C-4885-BACB-A13DEF47355A,1511563270.988912,49.27906476285053,-122.9164140765684,346.6817,0.8171374,130.6847278051438,3,16,-9999,139876.122569375,0.057220458984375,-0.2868804931640625,-0.747589111328125,139876.093547375,0.1398226151318852,0.04280046082699046,-0.4333543662676558
2017-11-24 14:41:11.218 -0800,362,C4D50155-580C-4885-BACB-A13DEF47355A,1511563270.988912,49.27906476285053,-122.9164140765684,346.6817,0.8171374,130.6847278051438,3,16,-9999,139876.152629375,0.0905914306640625,-0.3011016845703125,-0.8682861328125,139876.123607375,0.001894040167264354,0.1386199315836054,-0.4473711157169608
2017-11-24 14:41:11.248 -0800,363,C4D50155-580C-4885-BACB-A13DEF47355A,1511563270.988912,49.27906476285053,-122.9164140765684,346.6817,0.8171374,130.6847278051438,3,16,-9999,139876.182689375,0.138427734375,-0.32720947265625,-0.9743804931640625,139876.153667375,0.1172395417202313,0.1828313351561199,-0.3855756584149802
2017-11-24 14:41:11.278 -0800,364,C4D50155-580C-4885-BACB-A13DEF47355A,1511563270.988912,49.27906476285053,-122.9164140765684,346.6817,0.8171374,130.6847278051438,3,16,-9999,139876.212749375,0.15875244140625,-0.316802978515625,-1.0821533203125,139876.183727375,0.1408492637321108,0.2291128138439529,-0.1584985649082839
2017-11-24 14:41:11.325 -0800,365,C4D50155-580C-4885-BACB-A13DEF47355A,1511563270.988912,49.27906476285053,-122.9164140765684,346.6817,0.8171374,130.6847278051438,3,16,-9999,139876.242809375,0.1942596435546875,-0.336517333984375,-1.210494995117188,139876.213786375,-0.08236677882618869,0.2738778886070948,0.03104393619483566
2017-11-24 14:41:11.338 -0800,366,C4D50155-580C-4885-BACB-A13DEF47355A,1511563270.988912,49.27906476285053,-122.9164140765684,346.6817,0.8171374,130.6847278051438,3,16,-9999,139876.272868375,0.2144927978515625,-0.335662841796875,-1.28448486328125,139876.243846375,-0.4485210686756571,0.1565251625405352,0.2845550340494405
2017-11-24 14:41:11.368 -0800,367,C4D50155-580C-4885-BACB-A13DEF47355A,1511563270.988912,49.27906476285053,-122.9164140765684,346.6817,0.8171374,130.6847278051438,3,16,-9999,139876.302928375,0.17218017578125,-0.3169097900390625,-1.238784790039062,139876.273906375,-0.604570058013286,-0.1121579640442511,0.6670792424874079
2017-11-24 14:41:11.402 -0800,368,C4D50155-580C-4885-BACB-A13DEF47355A,1511563270.988912,49.27906476285053,-122.9164140765684,346.6817,0.8171374,130.6847278051438,3,16,-9999,139876.332988375,0.1167755126953125,-0.2326202392578125,-1.172958374023438,139876.303966375,-0.5945906607765411,-0.1381165941375805,0.9724303688570591
2017-11-24 14:41:11.428 -0800,369,C4D50155-580C-4885-BACB-A13DEF47355A,1511563270.988912,49.27906476285053,-122.9164140765684,346.6817,0.8171374,130.6847278051438,3,16,-9999,139876.363048375,0.07177734375,-0.169525146484375,-1.076385498046875,139876.334026375,-0.3662456362748581,-0.2182503123897377,1.005172336562929
2017-11-24 14:41:11.458 -0800,370,C4D50155-580C-4885-BACB-A13DEF47355A,1511563270.988912,49.27906476285053,-122.9164140765684,346.6817,0.8171374,130.6847278051438,3,16,-9999,139876.393108375,0.057861328125,-0.1553955078125,-0.9942626953125,139876.364085375,-0.2406267245008015,-0.3179886246904042,0.8264555852909818
2017-11-24 14:41:11.488 -0800,371,C4D50155-580C-4885-BACB-A13DEF47355A,1511563270.988912,49.27906476285053,-122.9164140765684,346.6817,0.8171374,130.6847278051438,3,16,-9999,139876.423168375,0.0804595947265625,-0.1147918701171875,-0.998687744140625,139876.394145375,-0.4529776024437956,-0.106038818807576,0.6092753310272381
2017-11-24 14:41:11.518 -0800,372,C4D50155-580C-4885-BACB-A13DEF47355A,1511563270.988912,49.27906476285053,-122.9164140765684,346.6817,0.8171374,130.6847278051438,3,16,-9999,139876.453209875,0.08807373046875,-0.0738525390625,-1.0064697265625,139876.424205375,-0.5849643987003407,0.1640057157264587,0.4458328738713311
