loggingTime(txt),loggingSample(N),identifierForVendor(txt),locationTimestamp_since1970(s),locationLatitude(WGS84),locationLongitude(WGS84),locationAltitude(m),locationSpeed(m/s),locationCourse(°),locationVerticalAccuracy(m),locationHorizontalAccuracy(m),locationFloor(Z),accelerometerTimestamp_sinceReboot(s),accelerometerAccelerationX(G),accelerometerAccelerationY(G),accelerometerAccelerationZ(G),gyroTimestamp_sinceReboot(s),gyroRotationX(rad/s),gyroRotationY(rad/s),gyroRotationZ(rad/s),motionTimestamp_sinceReboot(s),motionYaw(rad),motionRoll(rad),motionPitch(rad),motionRotationRateX(rad/s),motionRotationRateY(rad/s),motionRotationRateZ(rad/s),motionUserAccelerationX(G),motionUserAccelerationY(G),motionUserAccelerationZ(G),motionAttitudeReferenceFrame(txt),motionQuaternionX(R),motionQuaternionY(R),motionQuaternionZ(R),motionQuaternionW(R),motionGravityX(G),motionGravityY(G),motionGravityZ(G),motionMagneticFieldX(µT),motionMagneticFieldY(µT),motionMagneticFieldZ(µT),motionMagneticFieldCalibrationAccuracy(Z)
2017-11-27 14:31:48.209 -0800,1,C4D50155-580C-4885-BACB-A13DEF47355A,1511821903.817409,49.27720285123593,-122.9074262199566,342.9971,-1,-1,10,65,-9999,225619.177588625,-0.225189208984375,0.193206787109375,-0.709442138671875,225619.178565625,0.2660468634217168,-0.04094769965662234,0.02502519213125659,225619.166541625,-3.064433008359457,-0.1792175416002905,-0.1761713213212533,-0.07400040328502655,-0.02734658122062683,-0.08363909274339676,0.009851172566413879,0.01147560775279999,0.05452293157577515,XArbitraryCorrectedZVertical,0.09245514869689941,-0.08411546796560287,0.9910838007926941,-0.04613314568996429,-0.1755005717277527,0.175261452794075,-0.9687532782554626,-23.69235229492188,9.477867126464844,-56.30532836914062,2
2017-11-27 14:31:48.274 -0800,2,C4D50155-580C-4885-BACB-A13DEF47355A,1511821903.817409,49.27720285123593,-122.9074262199566,342.9971,-1,-1,10,65,-9999,225619.207648625,-0.164276123046875,0.1518402099609375,-1.0931396484375,225619.178565625,0.2660468634217168,-0.04094769965662234,0.02502519213125659,225619.201636625,-3.063583948136339,-0.1818645179944818,-0.1714300982819304,-0.1004697903990746,-0.0942482203245163,-0.002397711388766766,0.00618492066860199,0.07498328387737274,-0.08463448286056519,XArbitraryCorrectedZVertical,0.09372938424348831,-0.08166366815567017,0.9911540150642395,-0.04645882174372673,-0.178212508559227,0.1705916523933411,-0.9690917134284973,-23.98983955383301,9.260898590087891,-56.3052978515625,2
2017-11-27 14:31:48.307 -0800,3,C4D50155-580C-4885-BACB-A13DEF47355A,1511821903.817409,49.27720285123593,-122.9074262199566,342.9971,-1,-1,10,65,-9999,225619.237708625,-0.1661376953125,0.192962646484375,-0.9255828857421875,225619.208625625,-0.3608356908364711,-0.07663672142477421,-0.0111080449067205,225619.236670625,-3.06728737194165,-0.1843499777878176,-0.1823501637380591,-0.2487458735704422,-0.01315404288470745,-0.09215234220027924,0.01625163853168488,0.01127041876316071,0.03743547201156616,XArbitraryCorrectedZVertical,0.0949665755033493,-0.08719508349895477,0.9906227588653564,-0.04520749673247337,-0.1802683621644974,0.1813412755727768,-0.9667567610740662,-24.10693359375,9.715553283691406,-56.14447021484375,2
2017-11-27 14:31:48.309 -0800,4,C4D50155-580C-4885-BACB-A13DEF47355A,1511821903.817409,49.27720285123593,-122.9074262199566,342.9971,-1,-1,10,65,-9999,225619.267768625,-0.1959686279296875,0.17138671875,-0.9772491455078125,225619.238685625,-0.1440879339337561,0.001547562909445045,-0.1079475063608358,225619.236670625,-3.06728737194165,-0.1843499777878176,-0.1823501637380591,-0.2487458735704422,-0.01315404288470745,-0.09215234220027924,0.01625163853168488,0.01127041876316071,0.03743547201156616,XArbitraryCorrectedZVertical,0.0949665755033493,-0.08719508349895477,0.9906227588653564,-0.04520749673247337,-0.1802683621644974,0.1813412755727768,-0.9667567610740662,-24.10693359375,9.715553283691406,-56.14447021484375,2
2017-11-27 14:31:48.310 -0800,5,C4D50155-580C-4885-BACB-A13DEF47355A,1511821903.817409,49.27720285123593,-122.9074262199566,342.9971,-1,-1,10,65,-9999,225619.297828625,-0.19781494140625,0.1752166748046875,-0.980865478515625,225619.298804625,-0.03640967315912731,0.04249286572108631,0.01857288544221261,225619.271766625,-3.070930223536175,-0.1848066068758424,-0.1820178557204894,0.05325372517108917,0.02437163889408112,-0.08435169607400894,-0.01546140015125275,-0.008605390787124634,-0.00670093297958374,XArbitraryCorrectedZVertical,0.09502937644720078,-0.08719331026077271,0.9906972050666809,-0.04340828582644463,-0.1807208508253098,0.1810144633054733,-0.9667335152626038,-24.23154067993164,9.870769500732422,-56.27557373046875,2
2017-11-27 14:31:48.313 -0800,6,C4D50155-580C-4885-BACB-A13DEF47355A,1511821903.817409,49.27720285123593,-122.9074262199566,342.9971,-1,-1,10,65,-9999,225619.327887625,-0.173065185546875,0.1808319091796875,-0.9437255859375,225619.298804625,-0.03640967315912731,0.04249286572108631,0.01857288544221261,225619.306830625,-3.071916676543803,-0.1841346854037757,-0.1819672000069804,-0.0161282941699028,0.03707574680447578,0.03138304874300957,-0.01287446916103363,0.002705410122871399,0.004705548286437988,XArbitraryCorrectedZVertical,0.09465283900499344,-0.08722946792840958,0.9907528162002563,-0.0428881011903286,-0.1800729185342789,0.1809646487236023,-0.9668636918067932,-24.04584503173828,9.722991943359375,-56.00686645507812,2
2017-11-27 14:31:48.346 -0800,7,C4D50155-580C-4885-BACB-A13DEF47355A,1511821903.817409,49.27720285123593,-122.9074262199566,342.9971,-1,-1,10,65,-9999,225619.357947625,-0.1570281982421875,0.175567626953125,-0.9670562744140625,225619.328864625,0.01416428857369544,0.04869270473879077,0.05355510425705745,225619.341926625,-3.070017139393883,-0.1824746368038905,-0.1816879739909186,0.02638031542301178,0.02000534720718861,0.03531888127326965,0.01935814321041107,-0.0008041560649871826,0.01776337623596191,XArbitraryCorrectedZVertical,0.09390947967767715,-0.08703745156526566,0.9908031821250916,-0.0437445305287838,-0.1784767955541611,0.1806900203227997,-0.9672110080718994,-24.01791763305664,9.935390472412109,-56.31454467773438,2
2017-11-27 14:31:48.374 -0800,8,C4D50155-580C-4885-BACB-A13DEF47355A,1511821903.817409,49.27720285123593,-122.9074262199566,342.9971,-1,-1,10,65,-9999,225619.388007625,-0.180999755859375,0.1817779541015625,-0.97747802734375,225619.358924625,-0.01791774781405311,-0.03706241394230574,-0.02169091444647738,225619.376960625,-3.070541393237993,-0.1837748024139517,-0.1815090748810082,-0.0133498627692461,-0.05622368305921555,-0.02728594094514847,0.004172459244728088,-0.0009486228227615356,-0.008286118507385254,XArbitraryCorrectedZVertical,0.09452833980321884,-0.08694509416818619,0.9907618165016174,-0.04353352636098862,-0.1797400861978531,0.1805140674114227,-0.9670099020004272,-23.9736385345459,9.925769805908203,-56.14901733398438,2
2017-11-27 14:31:48.404 -0800,9,C4D50155-580C-4885-BACB-A13DEF47355A,1511821903.817409,49.27720285123593,-122.9074262199566,342.9971,-1,-1,10,65,-9999,225619.418067625,-0.1748046875,0.17462158203125,-0.97900390625,225619.388984625,-0.02411226050957742,-0.02536581043467772,-0.02922180137700345,225619.412055625,-3.071580962318619,-0.1848464995123181,-0.1815402668663286,0.005099471658468246,0.01270549744367599,-0.02465060912072659,0.006001114845275879,-0.004137873649597168,-0.01278781890869141,XArbitraryCorrectedZVertical,0.09501443803310394,-0.08698660880327225,0.9907321333885193,-0.04306653514504433,-0.1807752847671509,0.1805447489023209,-0.9668111801147461,-24.10594177246094,9.681354522705078,-56.25677490234375,2
2017-11-27 14:31:48.435 -0800,10,C4D50155-580C-4885-BACB-A13DEF47355A,1511821903.817409,49.27720285123593,-122.9074262199566,342.9971,-1,-1,10,65,-9999,225619.448127625,-0.18890380859375,0.1800537109375,-0.9649810791015625,225619.419043625,-0.003345462961357539,0.05417029446886575,-0.03290015947462089,225619.447089625,-3.072724840566752,-0.183264675832142,-0.1806723794051969,0.03004609420895576,0.05616430938243866,-0.03365654125809669,-0.009324401617050171,0.0001032650470733643,0.001398801803588867,XArbitraryCorrectedZVertical,0.09416981041431427,-0.08664429932832718,0.9908718466758728,-0.04239286109805107,-0.1792742311954498,0.1796910464763641,-0.9672496318817139,-24.04762268066406,9.567703247070312,-56.22293090820312,2
2017-11-27 14:31:48.464 -0800,11,C4D50155-580C-4885-BACB-A13DEF47355A,1511821903.817409,49.27720285123593,-122.9074262199566,342.9971,-1,-1,10,65,-9999,225619.478177125,-0.192718505859375,0.181640625,-0.9617156982421875,225619.449103625,0.01484632412886473,0.06155816964885457,-0.03360962558901801,225619.447089625,-3.072724840566752,-0.183264675832142,-0.1806723794051969,0.03004609420895576,0.05616430938243866,-0.03365654125809669,-0.009324401617050171,0.0001032650470733643,0.001398801803588867,XArbitraryCorrectedZVertical,0.09416981041431427,-0.08664429932832718,0.9908718466758728,-0.04239286109805107,-0.1792742311954498,0.1796910464763641,-0.9672496318817139,-24.04762268066406,9.567703247070312,-56.22293090820312,2
2017-11-27 14:31:48.524 -0800,12,C4D50155-580C-4885-BACB-A13DEF47355A,1511821903.817409,49.27720285123593,-122.9074262199566,342.9971,-1,-1,10,65,-9999,225619.508236125,-0.1841583251953125,0.1840362548828125,-0.9535980224609375,225619.479153125,-0.01773691917603673,0.03613084019299602,-0.01087581725966559,225619.482174125,-3.073525851304536,-0.1819926702263177,-0.1797965471872066,0.0005854042246937752,0.02754040434956551,-0.007682385854423046,-0.01482945680618286,0.003009587526321411,0.006007134914398193,XArbitraryCorrectedZVertical,0.09349365532398224,-0.08627447485923767,0.9909892082214355,-0.04190261289477348,-0.1780721545219421,0.1788294017314911,-0.9676312804222107,-24.11421585083008,9.645179748535156,-56.28164672851562,2
2017-11-27 14:31:48.527 -0800,13,C4D50155-580C-4885-BACB-A13DEF47355A,1511821903.817409,49.27720285123593,-122.9074262199566,342.9971,-1,-1,10,65,-9999,225619.538296125,-0.1758270263671875,0.19061279296875,-0.9536285400390625,225619.509213125,-0.03108601414005891,0.02126880341369982,0.0133024896449458,225619.517239125,-3.073416874292701,-0.1813770155538003,-0.1803549354606641,-0.01275059953331947,0.01269102562218904,0.0154340947046876,-0.00250379741191864,0.01160024106502533,0.01628738641738892,XArbitraryCorrectedZVertical,0.09320046007633209,-0.08655912429094315,0.9909898638725281,-0.04195437207818031,-0.1774583607912064,0.1793787628412247,-0.9676423668861389,-24.19000625610352,9.706569671630859,-56.2620849609375,2
2017-11-27 14:31:48.554 -0800,14,C4D50155-580C-4885-BACB-A13DEF47355A,1511821903.817409,49.27720285123593,-122.9074262199566,342.9971,-1,-1,10,65,-9999,225619.568356125,-0.1801910400390625,0.1899566650390625,-0.9575958251953125,225619.539273125,-0.028904352575066,0.01490438104062846,0.009073389833899964,225619.552334125,-3.073178997287355,-0.1810807772345971,-0.180835187919963,-0.01383349858224392,-0.004295221529901028,0.01218032464385033,-0.0008376091718673706,0.00929674506187439,0.01138752698898315,XArbitraryCorrectedZVertical,0.09307017177343369,-0.08679237961769104,0.9909762144088745,-0.04208027943968773,-0.1771561652421951,0.1798512041568756,-0.9676100611686707,-23.97010803222656,9.878654479980469,-56.23049926757812,2
2017-11-27 14:31:48.606 -0800,15,C4D50155-580C-4885-BACB-A13DEF47355A,1511821903.817409,49.27720285123593,-122.9074262199566,342.9971,-1,-1,10,65,-9999,225619.598416125,-0.1901092529296875,0.1871337890625,-0.9588470458984375,225619.569333125,-0.01800536581391672,0.02020140844879606,-0.001347559511580095,225619.587368125,-3.073168552779777,-0.1808079682645337,-0.1810048486596937,0.004574564285576344,0.02221137098968029,0.005141294561326504,-0.01018606126308441,0.006505340337753296,0.01012402772903442,XArbitraryCorrectedZVertical,0.09293762594461441,-0.08688173443078995,0.9909809231758118,-0.04208098724484444,-0.1768866926431656,0.1800180971622467,-0.9676283001899719,-23.97743225097656,9.905429840087891,-56.262939453125,2
2017-11-27 14:31:48.614 -0800,16,C4D50155-580C-4885-BACB-A13DEF47355A,1511821903.817409,49.27720285123593,-122.9074262199566,342.9971,-1,-1,10,65,-9999,225619.628476125,-0.182037353515625,0.18865966796875,-0.9553680419921875,225619.599392125,-0.02343901338600539,0.03611406227812852,0.008162056108874849,225619.622464125,-3.073066946539787,-0.1799369007933476,-0.1814067951275086,-0.02216671407222748,0.01697413623332977,0.006762872450053692,-0.009668678045272827,0.00806310772895813,0.01017600297927856,XArbitraryCorrectedZVertical,0.09251561015844345,-0.08709461987018585,0.9910005927085876,-0.04211085289716721,-0.1760307848453522,0.1804134696722031,-0.9677107930183411,-24.09008407592773,9.956920623779297,-56.42227172851562,2
2017-11-27 14:31:48.693 -0800,17,C4D50155-580C-4885-BACB-A13DEF47355A,1511821903.817409,49.27720285123593,-122.9074262199566,342.9971,-1,-1,10,65,-9999,225619.658535125,-0.1785125732421875,0.19464111328125,-0.955230712890625,225619.629452125,-0.05085918628557023,0.03301893645923842,-0.009368468082680744,225619.657498125,-3.073714360754516,-0.1791774170704279,-0.1827656149257455,-0.05064999312162399,0.0266118049621582,-0.007565624080598354,-0.003153830766677856,0.01279975473880768,0.01266127824783325,XArbitraryCorrectedZVertical,0.09212841838598251,-0.08781410753726959,0.9909856915473938,-0.0418153814971447,-0.1752519309520721,0.1817498207092285,-0.9676020741462708,-24.02186584472656,9.824604034423828,-56.51278686523438,2
2017-11-27 14:31:48.696 -0800,18,C4D50155-580C-4885-BACB-A13DEF47355A,1511821903.817409,49.27720285123593,-122.9074262199566,342.9971,-1,-1,10,65,-9999,225619.688595125,-0.17755126953125,0.1955108642578125,-0.95867919921875,225619.659512125,-0.07100147255816654,0.03307406389380307,-0.01612171197490368,225619.657498125,-3.073714360754516,-0.1791774170704279,-0.1827656149257455,-0.05064999312162399,0.0266118049621582,-0.007565624080598354,-0.003153830766677856,0.01279975473880768,0.01266127824783325,XArbitraryCorrectedZVertical,0.09212841838598251,-0.08781410753726959,0.9909856915473938,-0.0418153814971447,-0.1752519309520721,0.1817498207092285,-0.9676020741462708,-24.02186584472656,9.824604034423828,-56.51278686523438,2
2017-11-27 14:31:48.705 -0800,19,C4D50155-580C-4885-BACB-A13DEF47355A,1511821903.817409,49.27720285123593,-122.9074262199566,342.9971,-1,-1,10,65,-9999,225619.718655125,-0.1717529296875,0.19171142578125,-0.958709716796875,225619.689572125,-0.08749469550513626,0.04058098237451842,-0.04405986970648893,225619.692593125,-3.074994892591933,-0.1785603105215122,-0.1848770059221531,-0.0713888555765152,0.0298843439668417,-0.03771990537643433,-0.003270208835601807,0.01153263449668884,0.008559465408325195,XArbitraryCorrectedZVertical,0.09179262071847916,-0.08893254399299622,0.9909409880638123,-0.04124422371387482,-0.1745862364768982,0.1838256418704987,-0.9673302173614502,-23.72651481628418,10.05744171142578,-56.54367065429688,2
2017-11-27 14:31:48.766 -0800,20,C4D50155-580C-4885-BACB-A13DEF47355A,1511821903.817409,49.27720285123593,-122.9074262199566,342.9971,-1,-1,10,65,-9999,225619.748715125,-0.173736572265625,0.195526123046875,-0.9556121826171875,225619.719632125,-0.08149778936249584,0.02250557542393262,-0.02803989048522628,225619.727658125,-3.076870602047094,-0.1779472030974143,-0.1870212171614972,-0.06221567094326019,0.008596588857471943,-0.02058809064328671,0.002383649349212646,0.006083711981773376,0.008886516094207764,XArbitraryCorrectedZVertical,0.09143094718456268,-0.09009393304586411,0.9909051060676575,-0.04037914797663689,-0.1739229559898376,0.1859328895807266,-0.9670469164848328,-23.75659561157227,9.85980224609375,-56.28915405273438,2
2017-11-27 14:31:48.768 -0800,21,C4D50155-580C-4885-BACB-A13DEF47355A,1511821903.817409,49.27720285123593,-122.9074262199566,342.9971,-1,-1,10,65,-9999,225619.778775125,-0.175628662109375,0.193389892578125,-0.96917724609375,225619.749691125,-0.0543535199518632,0.004367850503838959,-0.002057558258195219,225619.762753125,-3.077443705990312,-0.178213384788921,-0.1885804775289583,-0.03392114117741585,-0.007400904782116413,0.001168418908491731,0.0003006309270858765,0.009037956595420837,0.008309543132781982,XArbitraryCorrectedZVertical,0.09155530482530594,-0.09088772535324097,0.9908294081687927,-0.04017389193177223,-0.1741287559270859,0.1874647289514542,-0.966714084148407,-23.82477569580078,10.30363845825195,-56.23336791992188,2
2017-11-27 14:31:48.795 -0800,22,C4D50155-580C-4885-BACB-A13DEF47355A,1511821903.817409,49.27720285123593,-122.9074262199566,342.9971,-1,-1,10,65,-9999,225619.808835125,-0.1826019287109375,0.1923065185546875,-0.9698944091796875,225619.779751125,-0.04064250139569926,-0.02112898745647066,-0.0008021441203318665,225619.797787125,-3.077627830205152,-0.1791065136629301,-0.1894728886260318,-0.01400713063776493,-0.03294074535369873,0.01317192427814007,-0.004511669278144836,0.003980532288551331,-0.002097427845001221,XArbitraryCorrectedZVertical,0.09199977666139603,-0.09132056683301926,0.9907490015029907,-0.04016163200139999,-0.1749622076749802,0.1883412450551987,-0.9663931727409363,-23.86250495910645,10.35764312744141,-56.314208984375,2
2017-11-27 14:31:48.852 -0800,23,C4D50155-580C-4885-BACB-A13DEF47355A,1511821903.817409,49.27720285123593,-122.9074262199566,342.9971,-1,-1,10,65,-9999,225619.838894125,-0.1821441650390625,0.1900177001953125,-0.968841552734375,225619.809811125,-0.01739177349876246,-0.007411044681472504,0.01454991429953891,225619.832882125,-3.07702306607078,-0.1795733570286015,-0.1895415313198902,0.01580595225095749,-0.00966276228427887,0.02228925749659538,-0.003925502300262451,0.004416659474372864,-0.005808234214782715,XArbitraryCorrectedZVertical,0.09225944429636002,-0.0913173109292984,0.99071204662323,-0.04048548638820648,-0.1754110306501389,0.1884086579084396,-0.9662986993789673,-23.83673477172852,10.38327789306641,-56.32595825195312,2
2017-11-27 14:31:48.856 -0800,24,C4D50155-580C-4885-BACB-A13DEF47355A,1511821903.817409,49.27720285123593,-122.9074262199566,342.9971,-1,-1,10,65,-9999,225619.868954125,-0.1786956787109375,0.1885528564453125,-0.9638671875,225619.839871125,0.01026701863447348,0.002066080373683473,0.02146507838603866,225619.867917125,-3.076159943830351,-0.1794967202757255,-0.1887932770213551,0.02342282049357891,0.006232405081391335,0.01927682012319565,-0.003287792205810547,0.001291081309318542,0.00275123119354248,XArbitraryCorrectedZVertical,0.09225191920995712,-0.09090819954872131,0.9907342195510864,-0.0408773198723793,-0.1753620952367783,0.1876737475395203,-0.966450572013855,-23.85340118408203,10.25545501708984,-56.32119750976562,2
2017-11-27 14:31:48.913 -0800,25,C4D50155-580C-4885-BACB-A13DEF47355A,1511821903.817409,49.27720285123593,-122.9074262199566,342.9971,-1,-1,10,65,-9999,225619.899014125,-0.18231201171875,0.187652587890625,-0.9587860107421875,225619.869931125,0.004134024960130002,0.01376747757127363,0.01074478973403369,225619.867917125,-3.076159943830351,-0.1794967202757255,-0.1887932770213551,0.02342282049357891,0.006232405081391335,0.01927682012319565,-0.003287792205810547,0.001291081309318542,0.00275123119354248,XArbitraryCorrectedZVertical,0.09225191920995712,-0.09090819954872131,0.9907342195510864,-0.0408773198723793,-0.1753620952367783,0.1876737475395203,-0.966450572013855,-23.85340118408203,10.25545501708984,-56.32119750976562,2
2017-11-27 14:31:48.915 -0800,26,C4D50155-580C-4885-BACB-A13DEF47355A,1511821903.817409,49.27720285123593,-122.9074262199566,342.9971,-1,-1,10,65,-9999,225619.929074125,-0.1859893798828125,0.186279296875,-0.95770263671875,225619.930050125,-0.01445324155196903,0.04037245686116522,-0.01399544416058441,225619.903042125,-3.076104179755472,-0.1792810260376275,-0.1884420091508786,0.00367067102342844,0.009492977522313595,-0.006605588831007481,-0.007116109132766724,6.447732448577881e-05,0.007568776607513428,XArbitraryCorrectedZVertical,0.09214338660240173,-0.09073593467473984,0.9907599687576294,-0.04088003188371658,-0.1751653850078583,0.1873287111520767,-0.9665531516075134,-23.82829475402832,10.39310836791992,-56.18673706054688,2
2017-11-27 14:31:48.945 -0800,27,C4D50155-580C-4885-BACB-A13DEF47355A,1511821903.817409,49.27720285123593,-122.9074262199566,342.9971,-1,-1,10,65,-9999,225619.959134125,-0.1795806884765625,0.1871185302734375,-0.9607696533203125,225619.930050125,-0.01445324155196903,0.04037245686116522,-0.01399544416058441,225619.938076125,-3.076503325571428,-0.1786067095906397,-0.1883693652043046,-0.0003482885658740997,0.03392155468463898,-0.01300122402608395,-0.007567122578620911,-7.778406143188477e-05,0.008646130561828613,XArbitraryCorrectedZVertical,0.09179035574197769,-0.09073202311992645,0.9908026456832886,-0.04064859077334404,-0.1745159924030304,0.1872573494911194,-0.9666844606399536,-23.68576812744141,10.3221321105957,-56.35931396484375,2
2017-11-27 14:31:48.981 -0800,28,C4D50155-580C-4885-BACB-A13DEF47355A,1511821903.817409,49.27720285123593,-122.9074262199566,342.9971,-1,-1,10,65,-9999,225619.989193125,-0.18023681640625,0.1882781982421875,-0.9669036865234375,225619.990170125,-0.08169779276036079,0.1403840094896739,-0.0958242644465771,225619.973172125,-3.078153740386979,-0.1766019329862818,-0.1882897742194791,-0.02146311290562153,0.09983707219362259,-0.06215299665927887,-0.00716826319694519,0.0005497187376022339,0.004553139209747314,XArbitraryCorrectedZVertical,0.09072127938270569,-0.09080816060304642,0.9909311532974243,-0.0397365428507328,-0.1725802719593048,0.1871791779994965,-0.9670470356941223,-23.8054370880127,10.3563117980957,-56.3094482421875,2
2017-11-27 14:31:49.005 -0800,29,C4D50155-580C-4885-BACB-A13DEF47355A,1511821903.817409,49.27720285123593,-122.9074262199566,342.9971,-1,-1,10,65,-9999,225620.019253125,-0.175537109375,0.1955413818359375,-0.97601318359375,225619.990170125,-0.08169779276036079,0.1403840094896739,-0.0958242644465771,225620.008206125,-3.081835329915368,-0.1726750540034141,-0.1898381449367549,-0.09570476412773132,0.1775577962398529,-0.1197024062275887,-0.008957117795944214,0.00351502001285553,-0.006919384002685547,XArbitraryCorrectedZVertical,0.08862466365098953,-0.0918169766664505,0.9911037087440491,-0.03779793158173561,-0.1687314808368683,0.188699945807457,-0.9674306511878967,-23.57154273986816,10.33817291259766,-56.38525390625,2
2017-11-27 14:31:49.035 -0800,30,C4D50155-580C-4885-BACB-A13DEF47355A,1511821903.817409,49.27720285123593,-122.9074262199566,342.9971,-1,-1,10,65,-9999,225620.049313125,-0.1600494384765625,0.19183349609375,-0.9815521240234375,225620.020230125,-0.1424141371886413,0.2764505022201114,-0.1742548911816287,225620.043301125,-3.089276430755583,-0.1636851293103066,-0.1932151199170212,-0.1476026475429535,0.4133962988853455,-0.2402712255716324,-0.00590960681438446,-0.001081943511962891,-0.01163005828857422,XArbitraryCorrectedZVertical,0.08385661244392395,-0.09397336840629578,0.9914597868919373,-0.03382883593440056,-0.1599228978157043,0.1920151710510254,-0.9682741761207581,-23.15395355224609,10.33846664428711,-56.49661254882812,2
2017-11-27 14:31:49.070 -0800,31,C4D50155-580C-4885-BACB-A13DEF47355A,1511821903.817409,49.27720285123593,-122.9074262199566,342.9971,-1,-1,10,65,-9999,225620.079373125,-0.152923583984375,0.22186279296875,-0.980255126953125,225620.050290125,-0.1588559611265725,0.531330198558908,-0.3026293757355903,225620.078366125,-3.101950633098492,-0.1459170418967923,-0.1955858434442611,-0.08192908763885498,0.6893889307975769,-0.4159986674785614,-0.01083004474639893,0.02530902624130249,-0.007777154445648193,XArbitraryCorrectedZVertical,0.07446127384901047,-0.09592042118310928,0.992238461971283,-0.02678828500211239,-0.1426275968551636,0.194341242313385,-0.9705095887184143,-22.10898971557617,10.38419342041016,-57.03610229492188,2
2017-11-27 14:31:49.095 -0800,32,C4D50155-580C-4885-BACB-A13DEF47355A,1511821903.817409,49.27720285123593,-122.9074262199566,342.9971,-1,-1,10,65,-9999,225620.109433125,-0.1717376708984375,0.1540679931640625,-1.039993286132812,225620.080349125,-0.104626544481507,0.748953336511932,-0.4542484629159815,225620.078366125,-3.101950633098492,-0.1459170418967923,-0.1955858434442611,-0.08192908763885498,0.6893889307975769,-0.4159986674785614,-0.01083004474639893,0.02530902624130249,-0.007777154445648193,XArbitraryCorrectedZVertical,0.07446127384901047,-0.09592042118310928,0.992238461971283,-0.02678828500211239,-0.1426275968551636,0.194341242313385,-0.9705095887184143,-22.10898971557617,10.38419342041016,-57.03610229492188,2
2017-11-27 14:31:49.166 -0800,33,C4D50155-580C-4885-BACB-A13DEF47355A,1511821903.817409,49.27720285123593,-122.9074262199566,342.9971,-1,-1,10,65,-9999,225620.139492125,-0.124725341796875,0.204315185546875,-0.924957275390625,225620.110409125,-0.2143067034475484,1.126228720757462,-0.6935931416680188,225620.113461125,-3.121391039535866,-0.1176756881498373,-0.1983256374981837,-0.2030360698699951,1.109137296676636,-0.6597061157226562,-0.05840478092432022,-0.04434862732887268,-0.06631463766098022,XArbitraryCorrectedZVertical,0.05951027944684029,-0.09823299944400787,0.9932558536529541,-0.01585493236780167,-0.1151029095053673,0.1970280706882477,-0.9736176133155823,-20.26444053649902,10.34300231933594,-57.65493774414062,2
2017-11-27 14:31:49.170 -0800,34,C4D50155-580C-4885-BACB-A13DEF47355A,1511821903.817409,49.27720285123593,-122.9074262199566,342.9971,-1,-1,10,65,-9999,225620.169552125,-0.3220367431640625,0.208892822265625,-0.8739776611328125,225620.140469125,0.3114231336550319,0.7213904181779388,-1.066655671385153,225620.148495125,3.128413251792899,-0.09130075265692597,-0.192876707803061,0.4499890208244324,0.5649977922439575,-1.031818628311157,-0.07955355197191238,0.01318146288394928,0.09563994407653809,XArbitraryCorrectedZVertical,0.04478764161467552,-0.09648585319519043,0.9943238496780396,0.002158196875825524,-0.08948331326246262,0.1916830539703369,-0.9773690700531006,-19.16071319580078,10.04402160644531,-58.10400390625,2
2017-11-27 14:31:49.185 -0800,35,C4D50155-580C-4885-BACB-A13DEF47355A,1511821903.817409,49.27720285123593,-122.9074262199566,342.9971,-1,-1,10,65,-9999,225620.199612125,-0.086578369140625,0.1859588623046875,-1.069351196289062,225620.170529125,1.043984181025308,0.254088737495043,-0.4522931700436453,225620.183590125,3.109722054265162,-0.08711707649370697,-0.1576369671637346,1.010868072509766,0.3103879392147064,-0.4754166603088379,-0.1728456765413284,0.07235468924045563,0.0304560661315918,XArbitraryCorrectedZVertical,0.04215061292052269,-0.07934394478797913,0.9958780407905579,0.01244194339960814,-0.08592812716960907,0.1569849103689194,-0.9838557243347168,-18.72869491577148,7.78399658203125,-58.52224731445312,2
2017-11-27 14:31:49.245 -0800,36,C4D50155-580C-4885-BACB-A13DEF47355A,1511821903.817409,49.27720285123593,-122.9074262199566,342.9971,-1,-1,10,65,-9999,225620.229672125,-0.13623046875,0.08612060546875,-1.223968505859375,225620.200589125,0.7716461321604972,0.3008751515255551,-0.8134918497366942,225620.218625125,3.085347229161226,-0.08112428534795263,-0.1277612275897244,0.5427381992340088,0.1221181824803352,-0.8737703561782837,-0.02597889304161072,0.005307003855705261,-0.1898486018180847,XArbitraryCorrectedZVertical,0.0386587455868721,-0.06489737331867218,0.9968180060386658,0.0254509337246418,-0.08037486672401428,0.1274139434099197,-0.9885876774787903,-18.13659477233887,5.657463073730469,-59.06301879882812,2
2017-11-27 14:31:49.248 -0800,37,C4D50155-580C-4885-BACB-A13DEF47355A,1511821903.817409,49.27720285123593,-122.9074262199566,342.9971,-1,-1,10,65,-9999,225620.259732125,-0.141845703125,0.221221923828125,-1.01123046875,225620.230648125,0.3703048264083568,-0.2807552358061154,-0.7999789703656321,225620.253720125,3.060597445611851,-0.09469566163677337,-0.1117528600558434,0.375156432390213,-0.461503267288208,-0.5889981389045715,-0.08457870781421661,0.06720580160617828,-0.0008788108825683594,XArbitraryCorrectedZVertical,0.04495900124311447,-0.05765227973461151,0.9966095685958862,0.03773693740367889,-0.09396438300609589,0.1115203946828842,-0.9893097877502441,-19.08498764038086,4.449390411376953,-58.91836547851562,2
2017-11-27 14:31:49.275 -0800,38,C4D50155-580C-4885-BACB-A13DEF47355A,1511821903.817409,49.27720285123593,-122.9074262199566,342.9971,-1,-1,10,65,-9999,225620.289792125,-0.12054443359375,0.25372314453125,-1.184112548828125,225620.260708125,0.3134633813661416,-0.6437941598124091,-0.6083453551745823,225620.288784125,3.036945690566395,-0.134521448279085,-0.09921977324058609,0.1727164685726166,-1.817589282989502,-0.922511875629425,0.01251532137393951,0.1560241281986237,-0.1960371136665344,XArbitraryCorrectedZVertical,0.06444782018661499,-0.05292043462395668,0.9953217506408691,0.04878878593444824,-0.1334564834833145,0.09905705600976944,-0.9860917925834656,-20.36454391479492,3.681182861328125,-58.53543090820312,2
2017-11-27 14:31:49.327 -0800,39,C4D50155-580C-4885-BACB-A13DEF47355A,1511821903.817409,49.27720285123593,-122.9074262199566,342.9971,-1,-1,10,65,-9999,225620.319851125,-0.1512298583984375,0.153228759765625,-1.01922607421875,225620.290768125,0.1054694349665171,-2.165156357821037,-1.086997961055614,225620.288784125,3.036945690566395,-0.134521448279085,-0.09921977324058609,0.1727164685726166,-1.817589282989502,-0.922511875629425,0.01251532137393951,0.1560241281986237,-0.1960371136665344,XArbitraryCorrectedZVertical,0.06444782018661499,-0.05292043462395668,0.9953217506408691,0.04878878593444824,-0.1334564834833145,0.09905705600976944,-0.9860917925834656,-20.36454391479492,3.681182861328125,-58.53543090820312,2
2017-11-27 14:31:49.336 -0800,40,C4D50155-580C-4885-BACB-A13DEF47355A,1511821903.817409,49.27720285123593,-122.9074262199566,342.9971,-1,-1,10,65,-9999,225620.349911125,-0.298309326171875,0.0098419189453125,-0.8254241943359375,225620.320828125,0.2967757476595961,-2.227444766240791,-1.563258515645536,225620.323880125,2.992106852386807,-0.2221561066281823,-0.0860667659801454,0.270500510931015,-2.314483165740967,-1.537680864334106,0.07053087651729584,0.07294447720050812,-0.05566692352294922,XArbitraryCorrectedZVertical,0.1072452962398529,-0.05090546607971191,0.9905009865760803,0.06938896328210831,-0.2195176929235458,0.08596055209636688,-0.9718141555786133,-25.35520172119141,2.452426910400391,-56.81964111328125,2
2017-11-27 14:31:49.408 -0800,41,C4D50155-580C-4885-BACB-A13DEF47355A,1511821903.817409,49.27720285123593,-122.9074262199566,342.9971,-1,-1,10,65,-9999,225620.379971125,-0.2941131591796875,-0.0245819091796875,-0.81109619140625,225620.350888125,1.116485279593298,-0.2620087122608297,-1.643337106463129,225620.358914125,2.942812544337551,-0.2643306309300136,-0.04502427952794983,1.222831726074219,-0.0618116706609726,-1.610360503196716,-0.09712532162666321,-0.0941423699259758,0.1503855586051941,XArbitraryCorrectedZVertical,0.1288831681013107,-0.03527664393186569,0.9864311814308167,0.09538442641496658,-0.2609984278678894,0.0450090691447258,-0.9642893671989441,-28.77622413635254,-0.5166435241699219,-54.92083740234375,2
2017-11-27 14:31:49.411 -0800,42,C4D50155-580C-4885-BACB-A13DEF47355A,1511821903.817409,49.27720285123593,-122.9074262199566,342.9971,-1,-1,10,65,-9999,225620.410031125,-0.1798858642578125,0.03179931640625,-0.9229278564453125,225620.380948125,1.717148746603547,1.800570669853625,-1.791040814208886,225620.394009125,2.898616007717771,-0.219185577127648,0.02469763743772844,1.768515825271606,2.046794414520264,-1.937639832496643,-0.01279512047767639,0.04057952761650085,0.1475911140441895,XArbitraryCorrectedZVertical,0.1100466623902321,-0.001069978810846806,0.9864352345466614,0.1217940449714661,-0.2173684388399124,-0.02469512633979321,-0.9757771492004395,-26.40863609313965,-5.431278228759766,-55.71304321289062,2
2017-11-27 14:31:49.426 -0800,43,C4D50155-580C-4885-BACB-A13DEF47355A,1511821903.817409,49.27720285123593,-122.9074262199566,342.9971,-1,-1,10,65,-9999,225620.440091125,-0.179046630859375,0.0055389404296875,-0.9621734619140625,225620.411007125,1.442354197949247,1.860320020490098,-2.297955418210056,225620.429043125,2.830040530296074,-0.1511461752542209,0.088691025385794,0.9584525227546692,1.28864598274231,-2.467057466506958,-0.03806978464126587,0.09309139847755432,0.005053460597991943,XArbitraryCorrectedZVertical,0.08137182146310806,0.03196695074439049,0.9835838675498962,0.1578583419322968,-0.1499795168638229,-0.08857479691505432,-0.9847134947776794,-23.93320083618164,-8.241897583007812,-56.68026733398438,2
2017-11-27 14:31:49.487 -0800,44,C4D50155-580C-4885-BACB-A13DEF47355A,1511821903.817409,49.27720285123593,-122.9074262199566,342.9971,-1,-1,10,65,-9999,225620.470114125,-0.1332855224609375,0.0536651611328125,-0.759735107421875,225620.441067125,0.1774442929031076,0.476921018540262,-2.652234672758861,225620.464102125,2.737812632855647,-0.1256117732153419,0.1064893767354551,-0.2775597870349884,0.1258163452148438,-2.766027688980103,-0.0200202465057373,0.1487381756305695,0.1601920127868652,XArbitraryCorrectedZVertical,0.07205329090356827,0.03946801647543907,0.975702166557312,0.2031147181987762,-0.1245720311999321,-0.1062882244586945,-0.9865012168884277,-20.93349266052246,-11.63003158569336,-57.18426513671875,2
2017-11-27 14:31:49.490 -0800,45,C4D50155-580C-4885-BACB-A13DEF47355A,1511821903.817409,49.27720285123593,-122.9074262199566,342.9971,-1,-1,10,65,-9999,225620.500174125,-0.120513916015625,9.1552734375e-05,-0.7001495361328125,225620.471091125,-0.4174781977452574,0.2748190497363288,-2.842388635648263,225620.499167125,2.635010413048709,-0.0951966557571776,0.1035912308794522,-0.4256052076816559,1.088783144950867,-2.956810235977173,-0.02484138309955597,0.1065493673086166,0.2921376824378967,XArbitraryCorrectedZVertical,0.0589594803750515,0.03815655782818794,0.9650822281837463,0.2523565590381622,-0.09454337507486343,-0.1034060567617416,-0.9901357293128967,-18.47073554992676,-12.99448776245117,-57.80636596679688,2
2017-11-27 14:31:49.516 -0800,46,C4D50155-580C-4885-BACB-A13DEF47355A,1511821903.817409,49.27720285123593,-122.9074262199566,342.9971,-1,-1,10,65,-9999,225620.530234125,-0.1219329833984375,-0.0335540771484375,-0.886444091796875,225620.501151125,-0.418775956144453,1.316879363190164,-2.930297452702907,225620.499167125,2.635010413048709,-0.0951966557571776,0.1035912308794522,-0.4256052076816559,1.088783144950867,-2.956810235977173,-0.02484138309955597,0.1065493673086166,0.2921376824378967,XArbitraryCorrectedZVertical,0.0589594803750515,0.03815655782818794,0.9650822281837463,0.2523565590381622,-0.09454337507486343,-0.1034060567617416,-0.9901357293128967,-18.47073554992676,-12.99448776245117,-57.80636596679688,2
2017-11-27 14:31:49.569 -0800,47,C4D50155-580C-4885-BACB-A13DEF47355A,1511821903.817409,49.27720285123593,-122.9074262199566,342.9971,-1,-1,10,65,-9999,225620.560294125,-0.1253662109375,-0.0240936279296875,-1.035919189453125,225620.531211125,-0.3679396730442575,1.204949099419114,-2.664812249955087,225620.534262125,2.535486940918214,-0.03698309989825158,0.09723682458329608,-0.3480663001537323,1.250524520874023,-2.673152923583984,-0.08671988546848297,0.0620952695608139,0.1162081956863403,XArbitraryCorrectedZVertical,0.03212828561663628,0.0408649630844593,0.9528708457946777,0.2988893389701843,-0.03680000826716423,-0.09708366543054581,-0.9945956468582153,-13.52490234375,-13.55254745483398,-59.16925048828125,2
2017-11-27 14:31:49.576 -0800,48,C4D50155-580C-4885-BACB-A13DEF47355A,1511821903.817409,49.27720285123593,-122.9074262199566,342.9971,-1,-1,10,65,-9999,225620.590354125,-0.1223602294921875,-0.182891845703125,-1.1480712890625,225620.561270125,-0.550626664869295,0.2536644959333934,-2.69388118588552,225620.569297125,2.441722707494971,-0.006849068435179778,0.08358923005486249,-0.5752578973770142,0.1603119373321533,-2.700192928314209,-0.1160691827535629,0.01919138431549072,-0.06961601972579956,XArbitraryCorrectedZVertical,0.0175386480987072,0.0380769670009613,0.938520073890686,0.3426696956157684,-0.006825101096183062,-0.08349192142486572,-0.9964850544929504,-11.93885040283203,-13.71225738525391,-59.4478759765625,2
2017-11-27 14:31:49.649 -0800,49,C4D50155-580C-4885-BACB-A13DEF47355A,1511821903.817409,49.27720285123593,-122.9074262199566,342.9971,-1,-1,10,65,-9999,225620.620414125,-0.19073486328125,-0.2704925537109375,-1.117630004882812,225620.591330125,-0.8191297617643919,-0.9738125494628103,-2.388067734750631,225620.604392125,2.353761958631964,-0.02353846107256768,0.05815374657650797,-0.801893949508667,-1.330592155456543,-2.25917387008667,-0.09665120393037796,-0.1529386043548584,-0.1651445031166077,XArbitraryCorrectedZVertical,0.02202057838439941,0.02232923731207848,0.9228277802467346,0.3839339017868042,-0.02349650114774704,-0.0581209734082222,-0.9980329871177673,-10.79103469848633,-13.50178909301758,-59.97991943359375,2
2017-11-27 14:31:49.652 -0800,50,C4D50155-580C-4885-BACB-A13DEF47355A,1511821903.817409,49.27720285123593,-122.9074262199566,342.9971,-1,-1,10,65,-9999,225620.650473125,-0.2618865966796875,-0.2280426025390625,-0.9763031005859375,225620.621390125,-0.6033308891580722,-1.874742635689531,-1.93106769379638,225620.639426125,2.283541389839911,-0.08207673171565927,0.04119021380230771,-0.3032788336277008,-1.761000633239746,-1.841543197631836,-0.1813448071479797,-0.2302600294351578,-0.01178008317947388,XArbitraryCorrectedZVertical,0.0458601713180542,0.001648581586778164,0.908061683177948,0.4163148403167725,-0.08191507309675217,-0.04117856919765472,-0.9957882761955261,-13.4253101348877,-13.10251998901367,-60.00881958007812,2
2017-11-27 14:31:49.666 -0800,51,C4D50155-580C-4885-BACB-A13DEF47355A,1511821903.817409,49.27720285123593,-122.9074262199566,342.9971,-1,-1,10,65,-9999,225620.680533125,-0.28497314453125,-0.1357879638671875,-1.022598266601562,225620.651450125,0.07342894389177376,-1.373254755041615,-1.973716088125127,225620.674521125,2.214171445203672,-0.1285111053531283,0.053289988073774,0.4048741161823273,-1.341923594474792,-2.151815891265869,-0.1558682471513748,-0.09950622916221619,-0.02385997772216797,XArbitraryCorrectedZVertical,0.06930168718099594,-0.004930344875901937,0.891471266746521,0.447718471288681,-0.127975732088089,-0.05326477065682411,-0.9903459548950195,-16.03799629211426,-14.56785583496094,-58.9525146484375,2
2017-11-27 14:31:49.729 -0800,52,C4D50155-580C-4885-BACB-A13DEF47355A,1511821903.817409,49.27720285123593,-122.9074262199566,342.9971,-1,-1,10,65,-9999,225620.710593125,-0.2471923828125,-0.169097900390625,-0.97247314453125,225620.711570125,0.5454097986099388,-1.584469528463581,-2.604675942012226,225620.709586125,2.133816695881575,-0.1750750435474318,0.085274866298775,0.585381031036377,-1.574063539505005,-2.557430505752563,-0.0741315633058548,-0.08125605434179306,0.007700860500335693,XArbitraryCorrectedZVertical,0.09699197858572006,-0.004989880137145519,0.8697667121887207,0.483811229467392,-0.1735491156578064,-0.08517155051231384,-0.9811353087425232,-17.04495239257812,-15.45675849914551,-58.70272827148438,2
2017-11-27 14:31:49.732 -0800,53,C4D50155-580C-4885-BACB-A13DEF47355A,1511821903.817409,49.27720285123593,-122.9074262199566,342.9971,-1,-1,10,65,-9999,225620.740653125,-0.2192535400390625,-0.2501678466796875,-0.9259490966796875,225620.711570125,0.5454097986099388,-1.584469528463581,-2.604675942012226,225620.709586125,2.133816695881575,-0.1750750435474318,0.085274866298775,0.585381031036377,-1.574063539505005,-2.557430505752563,-0.0741315633058548,-0.08125605434179306,0.007700860500335693,XArbitraryCorrectedZVertical,0.09699197858572006,-0.004989880137145519,0.8697667121887207,0.483811229467392,-0.1735491156578064,-0.08517155051231384,-0.9811353087425232,-17.04495239257812,-15.45675849914551,-58.70272827148438,2
2017-11-27 14:31:49.756 -0800,54,C4D50155-580C-4885-BACB-A13DEF47355A,1511821903.817409,49.27720285123593,-122.9074262199566,342.9971,-1,-1,10,65,-9999,225620.770713125,-0.167633056640625,-0.2457733154296875,-0.6936187744140625,225620.741629125,0.2345169003279417,-1.315231931739841,-2.67571043776791,225620.744681125,2.045384392005606,-0.2181081598893037,0.119011689132654,0.2926846742630005,-1.281448721885681,-2.680185079574585,-0.005545541644096375,-0.1288276612758636,0.04235488176345825,XArbitraryCorrectedZVertical,0.1235347166657448,-0.006154288537800312,0.8435691595077515,0.5225821733474731,-0.2148523926734924,-0.1187309473752975,-0.9694026112556458,-19.10921669006348,-18.9288158416748,-57.11419677734375,2
2017-11-27 14:31:49.817 -0800,55,C4D50155-580C-4885-BACB-A13DEF47355A,1511821903.817409,49.27720285123593,-122.9074262199566,342.9971,-1,-1,10,65,-9999,225620.800772125,0.00616455078125,-0.0853271484375,-0.851898193359375,225620.771689125,-1.889643820936851,-2.387749753316476,-2.484647271682355,225620.779715125,1.946923152003417,-0.3094637603079392,0.09737650073664994,-1.893852353096008,-2.083350658416748,-2.443892478942871,0.1600387692451477,-0.1420351266860962,0.5950031280517578,XArbitraryCorrectedZVertical,0.1543236374855042,-0.04681733250617981,0.8117724657058716,0.5612643957138062,-0.3031051754951477,-0.09722268581390381,-0.9479846954345703,-23.23262977600098,-19.78889083862305,-55.55392456054688,2
2017-11-27 14:31:49.820 -0800,56,C4D50155-580C-4885-BACB-A13DEF47355A,1511821903.817409,49.27720285123593,-122.9074262199566,342.9971,-1,-1,10,65,-9999,225620.830832125,-0.419342041015625,0.104766845703125,-0.8217620849609375,225620.801749125,-1.526301829198507,-1.467561017666847,-1.817394923724092,225620.814810125,1.862128636094974,-0.352091800168999,0.06675193590237323,-1.261915922164917,-1.27928352355957,-1.849591135978699,0.2780081629753113,0.06175851821899414,-6.318092346191406e-06,XArbitraryCorrectedZVertical,0.160040408372879,-0.07813839614391327,0.7859271764755249,0.5921146869659424,-0.3440940082073212,-0.06670237332582474,-0.9365628957748413,-25.57050895690918,-18.51007843017578,-55.8619384765625,2
2017-11-27 14:31:49.886 -0800,57,C4D50155-580C-4885-BACB-A13DEF47355A,1511821903.817409,49.27720285123593,-122.9074262199566,342.9971,-1,-1,10,65,-9999,225620.860892125,-0.7243194580078125,0.105865478515625,-0.9772491455078125,225620.831809125,-0.4891830111473139,-0.5077036986321609,-2.382972042320874,225620.849845125,1.777876140373568,-0.3706014080298333,0.07660884951374569,-0.256386935710907,-0.7028104662895203,-2.819748640060425,-0.2983558177947998,0.2425953298807144,0.01783096790313721,XArbitraryCorrectedZVertical,0.1666629612445831,-0.08680758625268936,0.7581051588058472,0.6244713664054871,-0.3611138164997101,-0.07653393596410751,-0.9293758273124695,-25.78543472290039,-18.72673606872559,-55.71697998046875,2
2017-11-27 14:31:49.889 -0800,58,C4D50155-580C-4885-BACB-A13DEF47355A,1511821903.817409,49.27720285123593,-122.9074262199566,342.9971,-1,-1,10,65,-9999,225620.890952125,-0.5634765625,-0.161346435546875,-1.06634521484375,225620.861869125,-0.4962089627351609,-1.445143326558887,-3.38400582654982,225620.884940125,1.660045810879293,-0.4165868470330439,0.1026727096724534,-1.015192031860352,-2.454891443252563,-3.570763111114502,-0.2565011978149414,-0.03180019557476044,-0.09896165132522583,XArbitraryCorrectedZVertical,0.1862804144620895,-0.1023221835494041,0.7138840556144714,0.6672326922416687,-0.4025106430053711,-0.1024924144148827,-0.9096595644950867,-26.14091491699219,-20.96298980712891,-54.86996459960938,2
2017-11-27 14:31:49.907 -0800,59,C4D50155-580C-4885-BACB-A13DEF47355A,1511821903.817409,49.27720285123593,-122.9074262199566,342.9971,-1,-1,10,65,-9999,225620.921012125,-0.50567626953125,-0.13873291015625,-0.8656463623046875,225620.891928125,-1.648427206254597,-3.162818313793834,-3.864630769534164,225620.920005125,1.509265623005098,-0.5122210485202998,0.1120972484195319,-1.792248249053955,-3.351965665817261,-4.190304279327393,-0.01573878526687622,-0.03498794138431549,-0.00194627046585083,XArbitraryCorrectedZVertical,0.212737187743187,-0.147136852145195,0.6512986421585083,0.7133747935295105,-0.4870383143424988,-0.1118626296520233,-0.8661872744560242,-29.36054992675781,-22.45468521118164,-53.07363891601562,2
2017-11-27 14:31:49.969 -0800,60,C4D50155-580C-4885-BACB-A13DEF47355A,1511821903.817409,49.27720285123593,-122.9074262199566,342.9971,-1,-1,10,65,-9999,225620.951071125,-0.488861083984375,-0.089996337890625,-0.7241668701171875,225620.921988125,-1.675231922626245,-3.51109746640669,-4.341358442579287,225620.920005125,1.509265623005098,-0.5122210485202998,0.1120972484195319,-1.792248249053955,-3.351965665817261,-4.190304279327393,-0.01573878526687622,-0.03498794138431549,-0.00194627046585083,XArbitraryCorrectedZVertical,0.212737187743187,-0.147136852145195,0.6512986421585083,0.7133747935295105,-0.4870383143424988,-0.1118626296520233,-0.8661872744560242,-29.36054992675781,-22.45468521118164,-53.07363891601562,2
2017-11-27 14:31:49.972 -0800,61,C4D50155-580C-4885-BACB-A13DEF47355A,1511821903.817409,49.27720285123593,-122.9074262199566,342.9971,-1,-1,10,65,-9999,225620.981131125,-0.383941650390625,-0.3992919921875,-0.3485565185546875,225620.982108125,-1.435489900239568,-6.825279736548485,-6.345398348140492,225620.955100125,1.34266191128798,-0.6331096012847464,0.165017745199647,-1.009454727172852,-4.936745643615723,-5.549467086791992,0.07414144277572632,0.0880216658115387,0.07061517238616943,XArbitraryCorrectedZVertical,0.2542997598648071,-0.1941950768232346,0.5690232515335083,0.7575171589851379,-0.5836171507835388,-0.1642698347568512,-0.7952398061752319,-32.89849472045898,-25.91813659667969,-49.29348754882812,2
2017-11-27 14:31:49.997 -0800,62,C4D50155-580C-4885-BACB-A13DEF47355A,1511821903.817409,49.27720285123593,-122.9074262199566,342.9971,-1,-1,10,65,-9999,225621.011191125,-0.37774658203125,-0.714324951171875,0.041412353515625,225620.982108125,-1.435489900239568,-6.825279736548485,-6.345398348140492,225620.990134125,1.149696199473218,-0.8133288613172639,0.2741843841659102,-1.488516807556152,-6.853755950927734,-6.410571575164795,0.3669642210006714,-0.2697044610977173,0.4770617485046387,XArbitraryCorrectedZVertical,0.3183883726596832,-0.2606139183044434,0.4493116140365601,0.7929868698120117,-0.6994380354881287,-0.2707618772983551,-0.6614184379577637,-35.16259002685547,-29.19971084594727,-45.6973876953125,2
2017-11-27 14:31:50.046 -0800,63,C4D50155-580C-4885-BACB-A13DEF47355A,1511821903.817409,49.27720285123593,-122.9074262199566,342.9971,-1,-1,10,65,-9999,225621.041251125,-0.8552093505859375,-0.6258697509765625,-0.0165863037109375,225621.012168125,-1.868872762330887,-5.516055363595646,-6.36194829641868,225621.025229125,0.948489916465043,-0.9557674674200152,0.4100403749867604,-1.671162128448486,-4.866485595703125,-6.129446983337402,0.2237066030502319,-0.3204851150512695,0.6116724610328674,XArbitraryCorrectedZVertical,0.3664510250091553,-0.3180207014083862,0.3137173354625702,0.8161848783493042,-0.7490514516830444,-0.398646354675293,-0.5291529297828674,-36.56288909912109,-36.84212875366211,-38.18878173828125,2
2017-11-27 14:31:50.057 -0800,64,C4D50155-580C-4885-BACB-A13DEF47355A,1511821903.817409,49.27720285123593,-122.9074262199566,342.9971,-1,-1,10,65,-9999,225621.071311125,-0.961212158203125,-0.5192718505859375,-0.361480712890625,225621.042227125,-0.8329363878036897,-3.998533443878912,-5.273496782040101,225621.060263125,0.8016757339106877,-1.036441615022599,0.5497229537111183,-0.5519317388534546,-4.432673454284668,-4.900623321533203,-0.2511345744132996,0.01288378238677979,0.1534143686294556,XArbitraryCorrectedZVertical,0.4031083583831787,-0.3469545841217041,0.2024509161710739,0.8222771286964417,-0.7338049411773682,-0.5224510431289673,-0.4342523217201233,-32.21591186523438,-43.24997711181641,-33.27151489257812,2
2017-11-27 14:31:50.129 -0800,65,C4D50155-580C-4885-BACB-A13DEF47355A,1511821903.817409,49.27720285123593,-122.9074262199566,342.9971,-1,-1,10,65,-9999,225621.101371125,-0.7523193359375,-0.455413818359375,-0.30389404296875,225621.072287125,-0.8500160388226949,-5.010670479324617,-4.61155637519211,225621.095359125,0.6706979095523682,-1.135197193140735,0.6779439261027633,-1.560323357582092,-5.077002048492432,-4.631537914276123,-0.1343379020690918,0.1331896781921387,-0.02387940883636475,XArbitraryCorrectedZVertical,0.4316175878047943,-0.3865023255348206,0.0928974449634552,0.8097481727600098,-0.7061314582824707,-0.6271929740905762,-0.3286444246768951,-27.44118881225586,-48.13565826416016,-29.02249145507812,2
2017-11-27 14:31:50.131 -0800,66,C4D50155-580C-4885-BACB-A13DEF47355A,1511821903.817409,49.27720285123593,-122.9074262199566,342.9971,-1,-1,10,65,-9999,225621.131461125,-0.8503875732421875,-0.5408782958984375,-0.188262939453125,225621.102347125,-2.032320013176756,-4.89529275352246,-4.796911321797189,225621.130423125,0.4827878801257973,-1.176523392185346,0.804650283271295,-2.453983545303345,-4.657498359680176,-4.983113765716553,-0.1952225565910339,0.190589427947998,0.07202577590942383,XArbitraryCorrectedZVertical,0.4383597671985626,-0.417932391166687,-0.02798907086253166,0.7952293753623962,-0.6401656866073608,-0.720588207244873,-0.2663464546203613,-24.26420593261719,-49.79931259155273,-28.41116333007812,2
2017-11-27 14:31:50.147 -0800,67,C4D50155-580C-4885-BACB-A13DEF47355A,1511821903.817409,49.27720285123593,-122.9074262199566,342.9971,-1,-1,10,65,-9999,225621.161521125,-1.15826416015625,-0.76123046875,-0.0008697509765625,225621.132437125,-2.462735048549292,-4.583369478214711,-4.855162644320492,225621.130423125,0.4827878801257973,-1.176523392185346,0.804650283271295,-2.453983545303345,-4.657498359680176,-4.983113765716553,-0.1952225565910339,0.190589427947998,0.07202577590942383,XArbitraryCorrectedZVertical,0.4383597671985626,-0.417932391166687,-0.02798907086253166,0.7952293753623962,-0.6401656866073608,-0.720588207244873,-0.2663464546203613,-24.26420593261719,-49.79931259155273,-28.41116333007812,2
2017-11-27 14:31:50.203 -0800,68,C4D50155-580C-4885-BACB-A13DEF47355A,1511821903.817409,49.27720285123593,-122.9074262199566,342.9971,-1,-1,10,65,-9999,225621.191581125,-1.097488403320312,-0.6813507080078125,0.03271484375,225621.162497125,-1.757408818066711,-4.067218232604819,-3.442356751297892,225621.165518125,0.2852213567252292,-1.180681604401183,0.9143195522783463,-1.812900185585022,-4.117888450622559,-3.552295446395874,-0.5901905298233032,0.03122216463088989,0.2261539697647095,XArbitraryCorrectedZVertical,0.4339624047279358,-0.4422942101955414,-0.1372614204883575,0.7727946043014526,-0.5644725561141968,-0.7921474575996399,-0.2321049273014069,-17.73561859130859,-50.66499710083008,-29.71014404296875,2
2017-11-27 14:31:50.207 -0800,69,C4D50155-580C-4885-BACB-A13DEF47355A,1511821903.817409,49.27720285123593,-122.9074262199566,342.9971,-1,-1,10,65,-9999,225621.221640125,-0.926849365234375,-0.6902008056640625,-0.104278564453125,225621.192557125,-0.6590356970470416,-3.236114632263321,-1.797124539403063,225621.200553125,0.1720808690540255,-1.214778407372517,0.97941737738362,-0.5586258769035339,-3.152771234512329,-1.654995560646057,-0.5222996473312378,0.1782256364822388,0.1788432598114014,XArbitraryCorrectedZVertical,0.4280910193920135,-0.4685938954353333,-0.2051878720521927,0.7450204491615295,-0.5225458741188049,-0.8301727175712585,-0.1943156868219376,-14.61480903625488,-50.28223037719727,-30.77493286132812,2
2017-11-27 14:31:50.237 -0800,70,C4D50155-580C-4885-BACB-A13DEF47355A,1511821903.817409,49.27720285123593,-122.9074262199566,342.9971,-1,-1,10,65,-9999,225621.251700125,-0.7714385986328125,-0.743438720703125,-0.124359130859375,225621.222617125,-0.0958005623128754,-2.124890161087366,-0.7641211041843692,225621.235648125,0.1406497673183875,-1.272909422556406,1.009448804145617,0.03499350696802139,-1.757264018058777,-0.6249998211860657,-0.3699929714202881,0.1227836608886719,0.03934085369110107,XArbitraryCorrectedZVertical,0.4244820773601532,-0.4916256070137024,-0.2372333705425262,0.722384512424469,-0.5088828206062317,-0.8465385437011719,-0.1562384516000748,-14.42654037475586,-50.17282485961914,-30.20388793945312,2
2017-11-27 14:31:50.288 -0800,71,C4D50155-580C-4885-BACB-A13DEF47355A,1511821903.817409,49.27720285123593,-122.9074262199566,342.9971,-1,-1,10,65,-9999,225621.281760125,-0.736053466796875,-0.7647552490234375,-0.2081298828125,225621.252677125,0.2593964175475709,-1.029059826276504,-0.4560642061471975,225621.270713125,0.148025189898319,-1.318944545002615,1.027089169604035,0.3316689133644104,-0.8745404481887817,-0.3291726410388947,-0.2411496639251709,0.08618927001953125,-0.05031681060791016,XArbitraryCorrectedZVertical,0.4266556799411774,-0.5034962296485901,-0.2492740154266357,0.7087445259094238,-0.5009920597076416,-0.8557968139648438,-0.1289129555225372,-14.27506256103516,-50.5844612121582,-29.20346069335938,2
2017-11-27 14:31:50.297 -0800,72,C4D50155-580C-4885-BACB-A13DEF47355A,1511821903.817409,49.27720285123593,-122.9074262199566,342.9971,-1,-1,10,65,-9999,225621.311820125,-0.7221527099609375,-0.7452850341796875,-0.2702178955078125,225621.282737125,0.293006575768807,-0.8174056312746746,-0.1486395425528105,225621.305808125,0.1660365058469213,-1.364799145245598,1.033007194341196,0.2434758245944977,-0.9503180980682373,0.07421216368675232,-0.2264814972877502,0.1138939261436462,-0.157325267791748,XArbitraryCorrectedZVertical,0.4274065494537354,-0.5147194862365723,-0.2544143497943878,0.6983271837234497,-0.5014085173606873,-0.8588432669639587,-0.1047749817371368,-14.38302803039551,-50.92035675048828,-28.68899536132812,2
2017-11-27 14:31:50.368 -0800,73,C4D50155-580C-4885-BACB-A13DEF47355A,1511821903.817409,49.27720285123593,-122.9074262199566,342.9971,-1,-1,10,65,-9999,225621.341880125,-0.6965789794921875,-0.7386932373046875,-0.2953643798828125,225621.312796125,0.1354731404395678,-0.986340059230543,0.2277167848005334,225621.340842125,0.1735618011700146,-1.409566367926373,1.022461118215439,-0.1395318806171417,-1.293838858604431,0.4746973812580109,-0.1836594939231873,0.1146087050437927,-0.2120198607444763,XArbitraryCorrectedZVertical,0.4202580451965332,-0.5306063294410706,-0.2581964731216431,0.6893290281295776,-0.5145063996315002,-0.8533934950828552,-0.08368019759654999,-15.74464797973633,-50.93347549438477,-27.59481811523438,2
2017-11-27 14:31:50.371 -0800,74,C4D50155-580C-4885-BACB-A13DEF47355A,1511821903.817409,49.27720285123593,-122.9074262199566,342.9971,-1,-1,10,65,-9999,225621.371939125,-0.5248870849609375,-0.7790374755859375,-0.1839752197265625,225621.342856125,-0.2542296187167082,-1.399715923632642,0.5141109978987826,225621.340842125,0.1735618011700146,-1.409566367926373,1.022461118215439,-0.1395318806171417,-1.293838858604431,0.4746973812580109,-0.1836594939231873,0.1146087050437927,-0.2120198607444763,XArbitraryCorrectedZVertical,0.4202580451965332,-0.5306063294410706,-0.2581964731216431,0.6893290281295776,-0.5145063996315002,-0.8533934950828552,-0.08368019759654999,-15.74464797973633,-50.93347549438477,-27.59481811523438,2
2017-11-27 14:31:50.388 -0800,75,C4D50155-580C-4885-BACB-A13DEF47355A,1511821903.817409,49.27720285123593,-122.9074262199566,342.9971,-1,-1,10,65,-9999,225621.401999125,-0.56793212890625,-1.145370483398438,-0.09771728515625,225621.372916125,-0.3958421444172356,-1.690606617915381,0.1417515427094296,225621.375937125,0.1558310394911256,-1.449345311413112,1.006813688138131,-0.3814603984355927,-1.697104811668396,0.183166429400444,-0.0005854368209838867,0.06710249185562134,-0.12653648853302,XArbitraryCorrectedZVertical,0.4052906632423401,-0.5507794618606567,-0.2677684724330902,0.6787352561950684,-0.5306187272071838,-0.8451328873634338,-0.06476292759180069,-18.11102867126465,-50.55600357055664,-27.070556640625,2
2017-11-27 14:31:50.448 -0800,76,C4D50155-580C-4885-BACB-A13DEF47355A,1511821903.817409,49.27720285123593,-122.9074262199566,342.9971,-1,-1,10,65,-9999,225621.432059125,-0.761474609375,-0.80816650390625,-0.0112457275390625,225621.402976125,-0.8582068570713426,-1.751379421358772,0.3096031293660718,225621.410971125,0.1224251109643022,-1.481464084679838,1.00076358517148,-0.9757767915725708,-1.701446890830994,0.4040164351463318,-0.1175979375839233,-0.4915212392807007,-0.0961574912071228,XArbitraryCorrectedZVertical,0.3896090388298035,-0.5693262219429016,-0.2835393846035004,0.6660914421081543,-0.5375076532363892,-0.8418833017349243,-0.04814489930868149,-20.18742179870605,-50.15320205688477,-26.93045043945312,2
2017-11-27 14:31:50.452 -0800,77,C4D50155-580C-4885-BACB-A13DEF47355A,1511821903.817409,49.27720285123593,-122.9074262199566,342.9971,-1,-1,10,65,-9999,225621.46211925,-0.6208953857421875,-0.69366455078125,0.0292510986328125,225621.433036125,-0.7930425009904117,-1.317711068398596,1.089284551167556,225621.446067125,0.06774505725167136,-1.483743485505048,0.966396152925652,-0.5802933573722839,-1.317152142524719,1.082269787788391,-0.257781445980072,0.09173351526260376,-0.06839084625244141,XArbitraryCorrectedZVertical,0.3625815212726593,-0.5863711833953857,-0.2916368544101715,0.6630622148513794,-0.5661168694496155,-0.8228431344032288,-0.04940695315599442,-21.67391586303711,-49.46650695800781,-27.22329711914062,2
2017-11-27 14:31:50.478 -0800,78,C4D50155-580C-4885-BACB-A13DEF47355A,1511821903.817409,49.27720285123593,-122.9074262199566,342.9971,-1,-1,10,65,-9999,225621.49217925,-0.7939910888671875,-1.369674682617188,0.540863037109375,225621.46309525,0.6909638027237835,-1.045679549375253,0.06661418097837001,225621.48113125,0.105552101324772,-1.551917929580942,0.9575584493114024,1.814925789833069,-0.7283672094345093,-0.2407859116792679,0.08972805738449097,-0.18099045753479,0.5642089247703552,XArbitraryCorrectedZVertical,0.3611566424369812,-0.6034349799156189,-0.2888049781322479,0.6496333479881287,-0.575415313243866,-0.81778883934021,-0.01086420938372612,-24.35807991027832,-48.91946792602539,-26.014892578125,2
2017-11-27 14:31:50.513 -0800,79,C4D50155-580C-4885-BACB-A13DEF47355A,1511821903.817409,49.27720285123593,-122.9074262199566,342.9971,-1,-1,10,65,-9999,225621.52223825,-0.69842529296875,-0.989898681640625,0.3886260986328125,225621.52321525,2.915898805953284,2.104715916881688,1.530877672583481,225621.51622625,0.2487632631624118,-1.647978911409913,0.9246054803235333,2.812793970108032,1.685730338096619,1.575506210327148,-0.2860873341560364,-0.400209903717041,0.4779846668243408,XArbitraryCorrectedZVertical,0.3821204006671906,-0.6141650080680847,-0.249353215098381,0.6439007520675659,-0.6003566980361938,-0.7983832359313965,0.04642931371927261,-25.68866920471191,-50.63495635986328,-21.47613525390625,2
2017-11-27 14:31:50.538 -0800,80,C4D50155-580C-4885-BACB-A13DEF47355A,1511821910.464011,49.27719357658101,-122.9074406846892,342.6527,-1,-1,10,65,-9999,225621.55229825,-0.09539794921875,-0.8072357177734375,-0.67327880859375,225621.52321525,2.915898805953284,2.104715916881688,1.530877672583481,225621.55126125,0.3665129580888804,-1.66212970531053,0.8796395761059557,0.522344708442688,2.366714477539062,0.1937241703271866,0.5210939645767212,-0.04157882928848267,-0.6662919521331787,XArbitraryCorrectedZVertical,0.4040008783340454,-0.6048570871353149,-0.1980834305286407,0.6570342779159546,-0.6347719430923462,-0.7705091834068298,0.05813761055469513,-26.67168235778809,-51.08878326416016,-18.98330688476562,2
2017-11-27 14:31:50.583 -0800,81,C4D50155-580C-4885-BACB-A13DEF47355A,1511821910.464011,49.27719357658101,-122.9074406846892,342.6527,-1,-1,10,65,-9999,225621.58235825,-0.612884521484375,-0.71209716796875,-0.182220458984375,225621.55327525,-0.4073699035117527,1.800584251975185,-0.1233624153824324,225621.55126125,0.3665129580888804,-1.66212970531053,0.8796395761059557,0.522344708442688,2.366714477539062,0.1937241703271866,0.5210939645767212,-0.04157882928848267,-0.6662919521331787,XArbitraryCorrectedZVertical,0.4040008783340454,-0.6048570871353149,-0.1980834305286407,0.6570342779159546,-0.6347719430923462,-0.7705091834068298,0.05813761055469513,-26.67168235778809,-51.08878326416016,-18.98330688476562,2
2017-11-27 14:31:50.598 -0800,82,C4D50155-580C-4885-BACB-A13DEF47355A,1511821910.464011,49.27719357658101,-122.9074406846892,342.6527,-1,-1,10,65,-9999,225621.61241825,-0.550079345703125,-0.8260040283203125,-0.1548919677734375,225621.58333525,-0.0556843015485758,-0.3367255608557658,-0.3591831993800769,225621.58635625,0.3431252033064431,-1.622044013708203,0.8908633206457344,-0.08261515945196152,-0.301668792963028,-0.3769260346889496,0.02879434823989868,0.07967782020568848,-0.2455862760543823,XArbitraryCorrectedZVertical,0.4040881097316742,-0.5939835906028748,-0.2016622871160507,0.6657541394233704,-0.6279153823852539,-0.7776148319244385,0.03220741450786591,-26.20098876953125,-50.98974609375,-19.99325561523438,2
2017-11-27 14:31:50.628 -0800,83,C4D50155-580C-4885-BACB-A13DEF47355A,1511821910.464011,49.27719357658101,-122.9074406846892,342.6527,-1,-1,10,65,-9999,225621.64247825,-0.491241455078125,-0.772064208984375,0.01544189453125,225621.61339425,0.06499631061614686,-0.8881884583073456,-0.01902136176978195,225621.62139025,0.3467530585171268,-1.648789092509371,0.8948841125525439,0.08752279728651047,-0.9487395286560059,-0.02757163159549236,0.1210981607437134,-0.005584239959716797,-0.1528694629669189,XArbitraryCorrectedZVertical,0.4035510420799255,-0.6012639403343201,-0.2072672843933105,0.6577754020690918,-0.6237074136734009,-0.7801365852355957,0.04874353855848312,-26.14786911010742,-51.09592437744141,-19.81890869140625,2
2017-11-27 14:31:50.658 -0800,84,C4D50155-580C-4885-BACB-A13DEF47355A,1511821910.464011,49.27719357658101,-122.9074406846892,342.6527,-1,-1,10,65,-9999,225621.67253825,-0.573638916015625,-0.7923583984375,0.18292236328125,225621.64345425,0.05220381631995125,-1.092592197241434,-0.2420259493375291,225621.65648525,0.3520174513487311,-1.690561009047596,0.9010453514924415,0.08636397868394852,-0.990839958190918,-0.2552890479564667,0.1196550130844116,0.01824450492858887,0.006395220756530762,XArbitraryCorrectedZVertical,0.4023892879486084,-0.6125099658966064,-0.2161509394645691,0.6451303362846375,-0.6163438558578491,-0.7839762568473816,0.07417119294404984,-26.67720794677734,-51.32222366333008,-18.3673095703125,2
2017-11-27 14:31:50.688 -0800,85,C4D50155-580C-4885-BACB-A13DEF47355A,1511821910.464011,49.27719357658101,-122.9074406846892,342.6527,-1,-1,10,65,-9999,225621.70259725,-0.3329010009765625,-0.82305908203125,0.1717071533203125,225621.67351425,0.1204768803413316,-0.5072259275326008,-0.1351271958139665,225621.69155025,0.3610323489656211,-1.718004454296838,0.9071285343221409,0.1774954795837402,-0.3491070568561554,-0.2669456899166107,0.1342037916183472,0.0218690037727356,0.115471363067627,XArbitraryCorrectedZVertical,0.4037595391273499,-0.6181872487068176,-0.2209739238023758,0.6371757984161377,-0.6093472242355347,-0.7877381443977356,0.09035447984933853,-26.43184852600098,-52.12068176269531,-17.43255615234375,2
2017-11-27 14:31:50.718 -0800,86,C4D50155-580C-4885-BACB-A13DEF47355A,1511821910.464011,49.27719357658101,-122.9074406846892,342.6527,-1,-1,10,65,-9999,225621.73265725,-0.461822509765625,-0.707122802734375,0.00909423828125,225621.70357425,0.0243500807949215,-0.2664772302538736,-0.6170325866504208,225621.72664525,0.3658804880022674,-1.728062586539996,0.9272268324498825,-0.2165074348449707,0.04705295711755753,-0.6412477493286133,0.2790349125862122,-0.3016034960746765,0.1265708208084106,XArbitraryCorrectedZVertical,0.4092865884304047,-0.6160148978233337,-0.2287276685237885,0.6330034732818604,-0.5926488041877747,-0.7999589443206787,0.09397973120212555,-25.94833183288574,-52.16141891479492,-17.3443603515625,2
2017-11-27 14:31:50.748 -0800,87,C4D50155-580C-4885-BACB-A13DEF47355A,1511821910.464011,49.27719357658101,-122.9074406846892,342.6527,-1,-1,10,65,-9999,225621.76271725,-0.906585693359375,-0.7032318115234375,-0.04400634765625,225621.73363425,-0.1821239995705948,-0.127043170325031,-0.6056230719083033,225621.76167925,0.366348721324857,-1.739465627982116,0.9440401218114263,0.06456305831670761,-0.6640077233314514,-0.2517135143280029,-0.3315629959106445,0.1096321940422058,-0.1441290378570557,XArbitraryCorrectedZVertical,0.4123521745204926,-0.615788459777832,-0.2369933575391769,0.6281751394271851,-0.5781965255737305,-0.8099343180656433,0.09845948964357376,-24.45053482055664,-52.33990478515625,-17.4478759765625,2
2017-11-27 14:31:50.778 -0800,88,C4D50155-580C-4885-BACB-A13DEF47355A,1511821910.464011,49.27719357658101,-122.9074406846892,342.6527,-1,-1,10,65,-9999,225621.79277725,-0.6194915771484375,-0.8539581298828125,0.267120361328125,225621.76369425,0.0492650180570488,-0.871966611475455,-0.1947532420919686,225621.76167925,0.366348721324857,-1.739465627982116,0.9440401218114263,0.06456305831670761,-0.6640077233314514,-0.2517135143280029,-0.3315629959106445,0.1096321940422058,-0.1441290378570557,XArbitraryCorrectedZVertical,0.4123521745204926,-0.615788459777832,-0.2369933575391769,0.6281751394271851,-0.5781965255737305,-0.8099343180656433,0.09845948964357376,-24.45053482055664,-52.33990478515625,-17.4478759765625,2
2017-11-27 14:31:50.812 -0800,89,C4D50155-580C-4885-BACB-A13DEF47355A,1511821910.464011,49.27719357658101,-122.9074406846892,342.6527,-1,-1,10,65,-9999,225621.82283725,-0.3392181396484375,-0.8161773681640625,0.338165283203125,225621.79375325,0.3993695012810456,0.1926759764417068,-0.2952561479415969,225621.79677525,0.3752152441624832,-1.772735221195608,0.9513186002881783,0.3137639164924622,-0.03850485756993294,-0.2764385342597961,-0.05730259418487549,-0.03919649124145508,0.1257503032684326,XArbitraryCorrectedZVertical,0.4128962755203247,-0.6226900219917297,-0.2437388449907303,0.6183566451072693,-0.568811297416687,-0.8141818046569824,0.1164523959159851,-24.33124351501465,-52.66558837890625,-16.63204956054688,2
2017-11-27 14:31:50.838 -0800,90,C4D50155-580C-4885-BACB-A13DEF47355A,1511821910.464011,49.27719357658101,-122.9074406846892,342.6527,-1,-1,10,65,-9999,225621.85289625,-0.68804931640625,-0.5883026123046875,-0.178375244140625,225621.82381325,1.128158180967225,2.82891623632577,-0.3998576587088571,225621.83180925,0.4453290465476967,-1.759998676707178,0.959492529540976,1.100036025047302,2.801306486129761,-0.3731060028076172,-0.03037732839584351,0.06752711534500122,0.02035272121429443,XArbitraryCorrectedZVertical,0.437807708978653,-0.6019102931022644,-0.2221371978521347,0.6298279762268066,-0.563693106174469,-0.8189004063606262,0.1079431846737862,-22.24526977539062,-53.87613296508789,-15.67626953125,2
2017-11-27 14:31:50.868 -0800,91,C4D50155-580C-4885-BACB-A13DEF47355A,1511821910.464011,49.27719357658101,-122.9074406846892,342.6527,-1,-1,10,65,-9999,225621.88295625,-0.634368896484375,-0.6468658447265625,-0.0482635498046875,225621.85387325,-0.03642831528675787,0.4764001042310426,-0.6355069351323005,225621.86690425,0.4717016644528482,-1.739968694905919,0.9755199461999833,-0.4327012002468109,-0.3288411498069763,-0.8216294646263123,-0.04764026403427124,0.2683317065238953,-0.2349885702133179,XArbitraryCorrectedZVertical,0.4516076445579529,-0.5858798623085022,-0.2151724398136139,0.6375702023506165,-0.5527320504188538,-0.8279935717582703,0.09440935403108597,-21.1156005859375,-54.62688064575195,-15.73675537109375,2
2017-11-27 14:31:50.898 -0800,92,C4D50155-580C-4885-BACB-A13DEF47355A,1511821910.464011,49.27719357658101,-122.9074406846892,342.6527,-1,-1,10,65,-9999,225621.91301625,0.01617431640625,-0.639373779296875,-0.4778289794921875,225621.88393325,-0.7549624931955867,-0.7410277691078562,-0.007233145520655211,225621.90196925,0.4331500104968298,-1.713280422445707,0.9822774347158416,-0.4154130816459656,2.015307664871216,0.976370096206665,-0.4677236080169678,-0.534142017364502,1.101056218147278,XArbitraryCorrectedZVertical,0.4448761940002441,-0.584380030632019,-0.2239511162042618,0.6406486630439758,-0.54950350522995,-0.8317638039588928,0.07882969826459885,-20.14573860168457,-55.04016876220703,-16.26483154296875,2
2017-11-27 14:31:50.928 -0800,93,C4D50155-580C-4885-BACB-A13DEF47355A,1511821910.464011,49.27719357658101,-122.9074406846892,342.6527,-1,-1,10,65,-9999,225621.94307625,-0.6060028076171875,-0.757965087890625,-0.2441558837890625,225621.91399325,-0.7465117504245473,0.4702513979062676,-0.4433870267262023,225621.93706425,0.3816083149418576,-1.660502658723446,1.007647409917428,-1.22188138961792,-1.100455403327942,-1.607004046440125,0.1868249177932739,0.2044954299926758,-0.2066543102264404,XArbitraryCorrectedZVertical,0.4424004852771759,-0.5728827118873596,-0.237817257642746,0.6477111577987671,-0.5317041277885437,-0.8455782532691956,0.04782558232545853,-19.95264434814453,-54.58874893188477,-18.0728759765625,2
2017-11-27 14:31:50.958 -0800,94,C4D50155-580C-4885-BACB-A13DEF47355A,1511821910.464011,49.27719357658101,-122.9074406846892,342.6527,-1,-1,10,65,-9999,225621.97313625,-0.4428558349609375,-1.019363403320312,0.04193115234375,225621.94405225,-1.365366205576691,-1.45228033196419,-1.637839809340987,225621.97209825,0.3023828099986366,-1.637711881027721,1.064425532939369,-1.076004266738892,-1.006711363792419,-1.345641851425171,0.02615648508071899,-0.1538251638412476,0.01563501358032227,XArbitraryCorrectedZVertical,0.4374470114707947,-0.5699607133865356,-0.2777400016784668,0.6376871466636658,-0.4839201867580414,-0.8745104670524597,0.03243020549416542,-17.72065734863281,-54.75602340698242,-20.099609375,2
2017-11-27 14:31:50.989 -0800,95,C4D50155-580C-4885-BACB-A13DEF47355A,1511821910.464011,49.27719357658101,-122.9074406846892,342.6527,-1,-1,10,65,-9999,225622.00319525,-0.209075927734375,-0.917816162109375,-0.1065673828125,225621.97411225,-0.868872284604892,-0.8406877844724744,-1.265592206917418,225621.97209825,0.3023828099986366,-1.637711881027721,1.064425532939369,-1.076004266738892,-1.006711363792419,-1.345641851425171,0.02615648508071899,-0.1538251638412476,0.01563501358032227,XArbitraryCorrectedZVertical,0.4374470114707947,-0.5699607133865356,-0.2777400016784668,0.6376871466636658,-0.4839201867580414,-0.8745104670524597,0.03243020549416542,-17.72065734863281,-54.75602340698242,-20.099609375,2
2017-11-27 14:31:51.019 -0800,96,C4D50155-580C-4885-BACB-A13DEF47355A,1511821910.464011,49.27719357658101,-122.9074406846892,342.6527,-1,-1,10,65,-9999,225622.03325525,-0.3547515869140625,-1.032974243164062,0.405914306640625,225622.00417225,-0.3495580025683125,-0.9271371892497545,-0.9967045495609134,225622.00719325,0.2647439130822842,-1.634677994724479,1.10653138948288,-0.3496226370334625,-0.9356079697608948,-1.036389708518982,0.2427647411823273,-0.01924014091491699,-0.142369270324707,XArbitraryCorrectedZVertical,0.4382618069648743,-0.5676432251930237,-0.3030582070350647,0.6275849938392639,-0.4468510746955872,-0.894150972366333,0.02858448587357998,-15.58452796936035,-55.1480598449707,-20.83737182617188,2
2017-11-27 14:31:51.054 -0800,97,C4D50155-580C-4885-BACB-A13DEF47355A,1511821910.464011,49.27719357658101,-122.9074406846892,342.6527,-1,-1,10,65,-9999,225622.06331525,-0.2953338623046875,-0.7990570068359375,0.054656982421875,225622.03423225,0.3475920570516161,0.9270005690858335,-0.2848698196902879,225622.04222725,0.2692508753805461,-1.640999543581193,1.126015156605984,0.4250385165214539,1.199389576911926,-0.2277903705835342,0.07690423727035522,-0.09354150295257568,0.427842378616333,XArbitraryCorrectedZVertical,0.4436612129211426,-0.5641410350799561,-0.3094930946826935,0.6237972974777222,-0.4291991293430328,-0.9027048349380493,0.03018075786530972,-15.09856986999512,-55.17045593261719,-20.9119873046875,2
2017-11-27 14:31:51.079 -0800,98,C4D50155-580C-4885-BACB-A13DEF47355A,1511821910.464011,49.27719357658101,-122.9074406846892,342.6527,-1,-1,10,65,-9999,225622.09337525,-0.3542938232421875,-0.857269287109375,-0.035186767578125,225622.06429225,0.4669890255709205,2.144942965147335,-0.3860763326999151,225622.07732325,0.3104563122860161,-1.607758139821273,1.135680171437458,0.377191573381424,2.012656688690186,-0.5096100568771362,0.09778639674186707,0.1454837918281555,-0.04299640655517578,XArbitraryCorrectedZVertical,0.4625644385814667,-0.5420538187026978,-0.2921505868434906,0.6378553509712219,-0.4212269186973572,-0.906821072101593,0.01557640451937914,-13.11045074462891,-55.63731384277344,-20.50265502929688,2
2017-11-27 14:31:51.109 -0800,99,C4D50155-580C-4885-BACB-A13DEF47355A,1511821910.464011,49.27719357658101,-122.9074406846892,342.6527,-1,-1,10,65,-9999,225622.12343525,-0.5453948974609375,-1.071029663085938,-0.168914794921875,225622.09435125,-0.08555351738657752,1.123075271710699,-0.897543344268467,225622.11238725,0.3104658366470877,-1.566901697414582,1.165699980791707,-0.2841245532035828,0.198631763458252,-1.132412314414978,-0.09629940986633301,-0.05842888355255127,-0.1141725182533264,XArbitraryCorrectedZVertical,0.476361870765686,-0.5218351483345032,-0.2923132479190826,0.6444531083106995,-0.3941027820110321,-0.9190644025802612,-0.001534892129711807,-9.950603485107422,-56.12447357177734,-20.89486694335938,2
2017-11-27 14:31:51.139 -0800,100,C4D50155-580C-4885-BACB-A13DEF47355A,1511821910.464011,49.27719357658101,-122.9074406846892,342.6527,-1,-1,10,65,-9999,225622.15349525,-0.4140472412109375,-1.120086669921875,-0.0128631591796875,225622.12441125,-0.4660148412441695,-0.4198545363859351,-0.9040435878571325,225622.14748325,0.2757805958558199,-1.54283512943732,1.195499786253753,-0.2357588410377502,-0.02404157444834709,-0.6034872531890869,-0.1915192008018494,-0.1966304183006287,0.04450368881225586,XArbitraryCorrectedZVertical,0.4788536131381989,-0.5153400301933289,-0.3071661293506622,0.6409150362014771,-0.3664031326770782,-0.9303989410400391,-0.01024774089455605,-8.266532897949219,-56.23013305664062,-21.5260009765625,2
2017-11-27 14:31:51.169 -0800,101,C4D50155-580C-4885-BACB-A13DEF47355A,1511821910.464011,49.27719357658101,-122.9074406846892,342.6527,-1,-1,10,65,-9999,225622.18355425,-0.444732666015625,-1.10595703125,0.0302886962890625,225622.15447125,-0.2329347163243256,0.1446072503463216,-0.551667428223298,225622.18251725,0.2447970273165967,-1.50437472295404,1.211211745222826,-0.4001849889755249,0.4501397311687469,-0.3012154400348663,-0.08825322985649109,-0.1776959300041199,0.05021107196807861,XArbitraryCorrectedZVertical,0.4811452031135559,-0.5067756175994873,-0.3127337992191315,0.6433311104774475,-0.3511083126068115,-0.9360430836677551,-0.02335553430020809,-7.72602653503418,-55.96457672119141,-21.80191040039062,2
2017-11-27 14:31:51.199 -0800,102,C4D50155-580C-4885-BACB-A13DEF47355A,1511821910.464011,49.27719357658101,-122.9074406846892,342.6527,-1,-1,10,65,-9999,225622.21361425,-0.360931396484375,-0.94677734375,-0.1177215576171875,225622.18453125,-0.4415260097564549,0.5743008353795545,-0.2396850307393495,225622.18251725,0.2447970273165967,-1.50437472295404,1.211211745222826,-0.4001849889755249,0.4501397311687469,-0.3012154400348663,-0.08825322985649109,-0.1776959300041199,0.05021107196807861,XArbitraryCorrectedZVertical,0.4811452031135559,-0.5067756175994873,-0.3127337992191315,0.6433311104774475,-0.3511083126068115,-0.9360430836677551,-0.02335553430020809,-7.72602653503418,-55.96457672119141,-21.80191040039062,2
2017-11-27 14:31:51.229 -0800,103,C4D50155-580C-4885-BACB-A13DEF47355A,1511821910.464011,49.27719357658101,-122.9074406846892,342.6527,-1,-1,10,65,-9999,225622.24367425,-0.1517181396484375,-0.9861602783203125,-0.329315185546875,225622.21459125,-0.3929653978077321,0.2918694059833431,-0.179911977969175,225622.21761225,0.2019405696104322,-1.445482770339246,1.21746452260663,-0.3902725577354431,0.3130595684051514,-0.1886318176984787,-0.02137476205825806,-0.006034612655639648,-0.07264244556427002,XArbitraryCorrectedZVertical,0.4813806116580963,-0.496637374162674,-0.314287006855011,0.6502668261528015,-0.3433102667331696,-0.9382250308990479,-0.04324804991483688,-6.576755523681641,-55.79791259765625,-23.13394165039062,2
2017-11-27 14:31:51.259 -0800,104,C4D50155-580C-4885-BACB-A13DEF47355A,1511821910.464011,49.27719357658101,-122.9074406846892,342.6527,-1,-1,10,65,-9999,225622.27373425,-0.35223388671875,-0.8750152587890625,-0.0588836669921875,225622.24465125,-0.2130768556561498,-0.9296195217018174,-0.2731236813863844,225622.25264625,0.1738356171000323,-1.432260259499449,1.221930491465946,-0.1559101641178131,-0.9807596802711487,-0.2491069287061691,0.2121511399745941,-0.02987402677536011,-0.1815400719642639,XArbitraryCorrectedZVertical,0.4777846932411194,-0.4981160163879395,-0.321531355381012,0.6482430100440979,-0.3385549187660217,-0.9397609829902649,-0.04720444232225418,-6.338016510009766,-55.91017532348633,-23.93161010742188,2
2017-11-27 14:31:51.293 -0800,105,C4D50155-580C-4885-BACB-A13DEF47355A,1511821910.464011,49.27719357658101,-122.9074406846892,342.6527,-1,-1,10,65,-9999,225622.30379425,-0.5834197998046875,-0.85223388671875,0.1418304443359375,225622.27471025,-0.1081477760748098,-1.075120795226079,-0.3321558427412988,225622.28777225,0.1677155462553836,-1.460492412880538,1.231524866435787,-0.02118533849716187,-1.340133905410767,-0.6399207711219788,0.07438218593597412,0.1314128637313843,-0.2818316221237183,XArbitraryCorrectedZVertical,0.4744020700454712,-0.5065820813179016,-0.3329836428165436,0.6383090615272522,-0.3307756185531616,-0.9429973959922791,-0.03663454204797745,-6.703126907348633,-55.52861785888672,-23.87225341796875,2
2017-11-27 14:31:51.319 -0800,106,C4D50155-580C-4885-BACB-A13DEF47355A,1511821910.464011,49.27719357658101,-122.9074406846892,342.6527,-1,-1,10,65,-9999,225622.33385325,-0.2214813232421875,-0.8625946044921875,0.089569091796875,225622.30477025,0.5236182166742565,-0.2370056243666207,-0.4939375526414324,225622.32280625,0.2098006843141285,-1.515885827842917,1.251776263172034,0.500578761100769,0.05068893358111382,-0.5886350870132446,0.05102992057800293,0.1494944095611572,0.04637265205383301,XArbitraryCorrectedZVertical,0.4814474284648895,-0.5095113515853882,-0.3388655781745911,0.6275155544281006,-0.3131606876850128,-0.9495432376861572,-0.01721311174333096,-6.310617446899414,-55.819091796875,-23.16738891601562,2
2017-11-27 14:31:51.349 -0800,107,C4D50155-580C-4885-BACB-A13DEF47355A,1511821910.464011,49.27719357658101,-122.9074406846892,342.6527,-1,-1,10,65,-9999,225622.36391325,-0.196380615234375,-0.899383544921875,0.0799407958984375,225622.33483025,0.300907109458636,0.1574095983385505,-0.6768365320892402,225622.35790125,0.2448996436782083,-1.542653509785828,1.276405902023271,0.2705866694450378,0.2711250483989716,-0.7742143273353577,0.1203917860984802,0.06401956081390381,0.09205746650695801,XArbitraryCorrectedZVertical,0.4923344850540161,-0.5035120844841003,-0.3418454229831696,0.6222726702690125,-0.2900390326976776,-0.9569792151451111,-0.008164671249687672,-4.705795288085938,-56.41560363769531,-22.31625366210938,2
2017-11-27 14:31:51.379 -0800,108,C4D50155-580C-4885-BACB-A13DEF47355A,1511821910.464011,49.27719357658101,-122.9074406846892,342.6527,-1,-1,10,65,-9999,225622.39397325,-0.3115692138671875,-0.934356689453125,0.1771240234375,225622.36489025,0.1429265293823725,0.3098433464963969,-0.9080447210788675,225622.39293525,0.2483030117899789,-1.526975358023012,1.310669700395639,-0.09820693731307983,1.03747820854187,-1.135462164878845,-0.05746945738792419,0.02791136503219604,0.1786713600158691,XArbitraryCorrectedZVertical,0.5047637224197388,-0.4894691109657288,-0.3472135961055756,0.6205445528030396,-0.2569531202316284,-0.966357409954071,-0.01126714795827866,-2.343290328979492,-56.77711486816406,-21.89736938476562,2
2017-11-27 14:31:51.409 -0800,109,C4D50155-580C-4885-BACB-A13DEF47355A,1511821910.464011,49.27719357658101,-122.9074406846892,342.6527,-1,-1,10,65,-9999,225622.42403325,-0.2223663330078125,-0.96185302734375,0.0339813232421875,225622.39495025,-0.1717853419027982,1.35711999357737,-1.175086807799947,225622.39293525,0.2483030117899789,-1.526975358023012,1.310669700395639,-0.09820693731307983,1.03747820854187,-1.135462164878845,-0.05746945738792419,0.02791136503219604,0.1786713600158691,XArbitraryCorrectedZVertical,0.5047637224197388,-0.4894691109657288,-0.3472135961055756,0.6205445528030396,-0.2569531202316284,-0.966357409954071,-0.01126714795827866,-2.343290328979492,-56.77711486816406,-21.89736938476562,2
2017-11-27 14:31:51.439 -0800,110,C4D50155-580C-4885-BACB-A13DEF47355A,1511821910.464011,49.27719357658101,-122.9074406846892,342.6527,-1,-1,10,65,-9999,225622.45409325,-0.1508941650390625,-1.044235229492188,-0.044219970703125,225622.42500925,-0.5228919726449919,1.671017203885085,-1.251010867317016,225622.42803125,0.1819797088718038,-1.407363036757082,1.352113762002626,-0.4936902821063995,1.659262537956238,-1.260383129119873,-0.0152130126953125,0.01407164335250854,0.06782948970794678,XArbitraryCorrectedZVertical,0.5209783911705017,-0.459274023771286,-0.349144458770752,0.6290838122367859,-0.2140502780675888,-0.9761841297149658,-0.03529777377843857,2.027790069580078,-56.92486953735352,-22.656005859375,2
2017-11-27 14:31:51.470 -0800,111,C4D50155-580C-4885-BACB-A13DEF47355A,1511821910.464011,49.27719357658101,-122.9074406846892,342.6527,-1,-1,10,65,-9999,225622.4841377917,-0.162811279296875,-0.931640625,-0.1430511474609375,225622.45506925,-0.5490053323976548,1.498795103563514,-0.9956014682374026,225622.4630797917,0.04084900427978751,-1.214021125781062,1.38437774631009,-0.5367260575294495,1.383078932762146,-0.9863927960395813,0.01055055856704712,-0.07016688585281372,-0.04881048202514648,XArbitraryCorrectedZVertical,0.5330689549446106,-0.4283367991447449,-0.351063460111618,0.6396241188049316,-0.1736670285463333,-0.9826743006706238,-0.06473015248775482,4.055213928222656,-56.71492767333984,-23.3087158203125,2
2017-11-27 14:31:51.500 -0800,112,C4D50155-580C-4885-BACB-A13DEF47355A,1511821910.464011,49.27719357658101,-122.9074406846892,342.6527,-1,-1,10,65,-9999,225622.5141967917,-0.048583984375,-0.8629608154296875,-0.2065277099609375,225622.4851137917,-0.4699603143991219,0.9679155118610479,-0.8699263637643453,225622.4981757917,-0.1262074857425638,-1.013309189753596,1.405742300095379,-0.3031948506832123,0.7722909450531006,-0.870818018913269,0.01604324579238892,0.09425860643386841,-0.05829226970672607,XArbitraryCorrectedZVertical,0.5407311916351318,-0.4051505327224731,-0.3551216125488281,0.646027147769928,-0.1394258141517639,-0.9864094853401184,-0.08692564815282822,7.225284576416016,-56.12612152099609,-24.6864013671875,2
2017-11-27 14:31:51.532 -0800,113,C4D50155-580C-4885-BACB-A13DEF47355A,1511821910.464011,49.27719357658101,-122.9074406846892,342.6527,-1,-1,10,65,-9999,225622.5442567917,-0.104766845703125,-0.986846923828125,-0.15167236328125,225622.5151737917,0.05136385531214025,0.2282275790976105,-0.8301701623794244,225622.5332097917,-0.2311120708721005,-0.9000018698916348,1.430146512824878,0.3026843369007111,0.07476047426462173,-0.7772866487503052,0.001213729381561279,0.06692254543304443,-0.08606255054473877,XArbitraryCorrectedZVertical,0.5485947132110596,-0.3943017423152924,-0.3616836667060852,0.6424598097801208,-0.1098105534911156,-0.9901251196861267,-0.08713995665311813,9.635452270507812,-56.21635055541992,-24.40914916992188,2
2017-11-27 14:31:51.560 -0800,114,C4D50155-580C-4885-BACB-A13DEF47355A,1511821910.464011,49.27719357658101,-122.9074406846892,342.6527,-1,-1,10,65,-9999,225622.5743167917,-0.0553741455078125,-1.0106201171875,0.0963592529296875,225622.5452337917,0.4879936434044845,-0.1419707208671431,-0.8336285433710013,225622.5683047917,-0.2773105697413187,-0.8577970926745117,1.462687086471854,0.4729332327842712,0.03085040114820004,-0.7646757364273071,-0.003437727689743042,-0.01731276512145996,-0.03190106153488159,XArbitraryCorrectedZVertical,0.5587688088417053,-0.3904983401298523,-0.3686316907405853,0.631980299949646,-0.08161473274230957,-0.9941619038581848,-0.07057692855596542,11.68247604370117,-56.42651748657227,-23.16506958007812,2
2017-11-27 14:31:51.590 -0800,115,C4D50155-580C-4885-BACB-A13DEF47355A,1511821910.464011,49.27719357658101,-122.9074406846892,342.6527,-1,-1,10,65,-9999,225622.6043767917,-0.0390625,-0.952972412109375,0.008697509765625,225622.5752937917,0.2374314638249244,0.6995439751238008,-0.5554608348800069,225622.6033387917,-0.3835086376206946,-0.7262946415078948,1.478613931391477,-0.1242995262145996,0.9813563823699951,-0.46286940574646,0.01817780733108521,0.0437278151512146,0.06457895040512085,XArbitraryCorrectedZVertical,0.5682663917541504,-0.3777073621749878,-0.3665941655635834,0.6324706077575684,-0.0611313208937645,-0.9957541823387146,-0.06882091611623764,12.83112716674805,-56.49768829345703,-22.89208984375,2
2017-11-27 14:31:51.620 -0800,116,C4D50155-580C-4885-BACB-A13DEF47355A,1511821910.464011,49.27719357658101,-122.9074406846892,342.6527,-1,-1,10,65,-9999,225622.6344367917,0.0760955810546875,-0.9627532958984375,-0.06072998046875,225622.6053527917,-0.1602035206381526,1.225349446001339,-0.3732990184219329,225622.6033387917,-0.3835086376206946,-0.7262946415078948,1.478613931391477,-0.1242995262145996,0.9813563823699951,-0.46286940574646,0.01817780733108521,0.0437278151512146,0.06457895040512085,XArbitraryCorrectedZVertical,0.5682663917541504,-0.3777073621749878,-0.3665941655635834,0.6324706077575684,-0.0611313208937645,-0.9957541823387146,-0.06882091611623764,12.83112716674805,-56.49768829345703,-22.89208984375,2
2017-11-27 14:31:51.651 -0800,117,C4D50155-580C-4885-BACB-A13DEF47355A,1511821910.464011,49.27719357658101,-122.9074406846892,342.6527,-1,-1,10,65,-9999,225622.6644957917,-0.1593475341796875,-0.9711456298828125,-0.134368896484375,225622.6354127917,-0.2184074388940524,1.015901147330422,-0.01328438014953326,225622.6384337917,-0.4912519877595922,-0.576084558748447,1.477880742733078,-0.2134799212217331,1.048762321472168,-0.02406158670783043,0.1274909675121307,0.03447425365447998,0.01972973346710205,XArbitraryCorrectedZVertical,0.5753157138824463,-0.3607069253921509,-0.3579220473766327,0.640932023525238,-0.05054088309407234,-0.9956864714622498,-0.07780468463897705,15.17123794555664,-56.69749069213867,-22.67828369140625,2
2017-11-27 14:31:51.680 -0800,118,C4D50155-580C-4885-BACB-A13DEF47355A,1511821910.464011,49.27719357658101,-122.9074406846892,342.6527,-1,-1,10,65,-9999,225622.6945557917,-0.0279083251953125,-1.112228393554688,-0.1207427978515625,225622.6654727917,-0.0883226722880419,0.8752686649110443,0.1738325138327421,225622.6734987917,-0.4785629937267249,-0.5583910394347549,1.471906502190137,-0.05609192699193954,0.8687865138053894,0.1751628816127777,-0.09368845820426941,-0.02327245473861694,-0.02073067426681519,XArbitraryCorrectedZVertical,0.578504204750061,-0.3513792753219604,-0.3485901951789856,0.6483441591262817,-0.0523076131939888,-0.9951143860816956,-0.08373098075389862,16.09460830688477,-57.02767944335938,-22.70645141601562,2
2017-11-27 14:31:51.710 -0800,119,C4D50155-580C-4885-BACB-A13DEF47355A,1511821910.464011,49.27719357658101,-122.9074406846892,342.6527,-1,-1,10,65,-9999,225622.7246157917,-0.0768585205078125,-1.089263916015625,-0.0739288330078125,225622.6955327917,0.04823836945682326,0.5166639041197325,-0.0350850168329219,225622.7085937917,-0.4682764563573722,-0.5467991351666687,1.472156165148037,0.07251128554344177,0.3966728150844574,-0.03949397802352905,0.01585128903388977,-0.1452113389968872,-0.04447907209396362,XArbitraryCorrectedZVertical,0.5823864340782166,-0.3446230292320251,-0.3418863713741302,0.6520543098449707,-0.05120589211583138,-0.9951390027999878,-0.08412201702594757,16.81190490722656,-57.064697265625,-22.36868286132812,2
2017-11-27 14:31:51.740 -0800,120,C4D50155-580C-4885-BACB-A13DEF47355A,1511821910.464011,49.27719357658101,-122.9074406846892,342.6527,-1,-1,10,65,-9999,225622.7546757917,-0.019805908203125,-1.292037963867188,-0.1352996826171875,225622.7255927917,0.1155023617411726,0.1438314715207815,0.1364848753376889,225622.7436277917,-0.4131545868453147,-0.5956563547086959,1.473644204252548,0.1572155505418777,-0.06011796742677689,0.200261577963829,0.07235109806060791,-0.1696783304214478,-0.009533822536468506,XArbitraryCorrectedZVertical,0.5841226577758789,-0.3444610238075256,-0.338203489780426,0.6525073051452637,-0.05442202463746071,-0.9952844381332397,-0.0802946463227272,16.85214614868164,-57.38919448852539,-21.98745727539062,2
2017-11-27 14:31:51.774 -0800,121,C4D50155-580C-4885-BACB-A13DEF47355A,1511821910.464011,49.27719357658101,-122.9074406846892,342.6527,-1,-1,10,65,-9999,225622.7847357917,0.024444580078125,-1.322982788085938,-0.1168670654296875,225622.7556517917,0.2524093481116391,-0.2235729061443701,0.128557177404741,225622.7787237917,-0.3112889272787481,-0.7037026654055474,1.478303063395449,0.33588907122612,-0.1940835267305374,0.1373054981231689,0.0235227644443512,-0.3594074845314026,-0.05129778385162354,XArbitraryCorrectedZVertical,0.5852627754211426,-0.3496522605419159,-0.3369064629077911,0.6493880748748779,-0.05976239219307899,-0.9957255721092224,-0.07042156159877777,16.44892883300781,-57.86835479736328,-21.45932006835938,2
2017-11-27 14:31:51.801 -0800,122,C4D50155-580C-4885-BACB-A13DEF47355A,1511821910.464011,49.27719357658101,-122.9074406846892,342.6527,-1,-1,10,65,-9999,225622.8147947917,-0.077850341796875,-1.28369140625,-0.078033447265625,225622.7857117917,0.3411107219066902,-0.2727154187912752,0.2183499146145067,225622.8137577917,-0.1227938100038624,-0.9046235834363242,1.478626184757059,0.3959687352180481,-0.5365732312202454,0.5800094604492188,-0.003306686878204346,-0.2895534634590149,-0.02376329898834229,XArbitraryCorrectedZVertical,0.5850670337677002,-0.3595231175422668,-0.3346980810165405,0.6453037858009338,-0.07236163318157196,-0.9957553148269653,-0.05687938630580902,15.33060455322266,-57.88901519775391,-20.40948486328125,2
2017-11-27 14:31:51.830 -0800,123,C4D50155-580C-4885-BACB-A13DEF47355A,1511821910.464011,49.27719357658101,-122.9074406846892,342.6527,-1,-1,10,65,-9999,225622.8448547917,0.0414581298828125,-1.265792846679688,-0.1316680908203125,225622.8157717917,0.4268514595179003,-0.5771379008888159,0.7233070952144689,225622.8137577917,-0.1227938100038624,-0.9046235834363242,1.478626184757059,0.3959687352180481,-0.5365732312202454,0.5800094604492188,-0.003306686878204346,-0.2895534634590149,-0.02376329898834229,XArbitraryCorrectedZVertical,0.5850670337677002,-0.3595231175422668,-0.3346980810165405,0.6453037858009338,-0.07236163318157196,-0.9957553148269653,-0.05687938630580902,15.33060455322266,-57.88901519775391,-20.40948486328125,2
2017-11-27 14:31:51.860 -0800,124,C4D50155-580C-4885-BACB-A13DEF47355A,1511821910.464011,49.27719357658101,-122.9074406846892,342.6527,-1,-1,10,65,-9999,225622.8749147917,0.0644073486328125,-0.661834716796875,0.0473785400390625,225622.8458317917,0.4328640783109722,-1.658157331613311,0.6112679081548353,225622.8488527917,0.1609204607954349,-1.218797887865724,1.461906894015047,0.450007826089859,-1.521429657936096,0.6594611406326294,0.1373356878757477,-0.2767050266265869,-0.0982128381729126,XArbitraryCorrectedZVertical,0.5798907279968262,-0.3807789087295532,-0.3318001329898834,0.6392518281936646,-0.1020115837454796,-0.9940773844718933,-0.03746833279728889,12.61200332641602,-58.40001678466797,-19.16693115234375,2
2017-11-27 14:31:51.890 -0800,125,C4D50155-580C-4885-BACB-A13DEF47355A,1511821910.464011,49.27719357658101,-122.9074406846892,342.6527,-1,-1,10,65,-9999,225622.9049747917,-0.3763885498046875,-0.3408050537109375,0.027587890625,225622.8758917917,0.2309898097802408,-1.797550645177475,0.4731973867041133,225622.8839177917,0.3354564274828473,-1.457689343694936,1.449722245362901,0.01872273162007332,-1.860933184623718,0.5772882103919983,0.2544974684715271,0.2090643644332886,0.2033442854881287,XArbitraryCorrectedZVertical,0.5708763003349304,-0.4090041220188141,-0.3421654403209686,0.6242905259132385,-0.1200065165758133,-0.9926794767379761,-0.01363175548613071,10.96186065673828,-58.52618408203125,-18.89956665039062,2
2017-11-27 14:31:51.920 -0800,126,C4D50155-580C-4885-BACB-A13DEF47355A,1511821910.464011,49.27719357658101,-122.9074406846892,342.6527,-1,-1,10,65,-9999,225622.9350347917,-0.035400390625,-0.778533935546875,-0.2634429931640625,225622.9059507917,-0.62342177642163,-1.140188744875549,-0.7417185930946226,225622.9190127917,0.1556570675222485,-1.329993310900766,1.460812125926348,-0.1352008581161499,-0.3896857500076294,-0.3302516341209412,-0.1636075973510742,0.06094396114349365,0.1562575101852417,XArbitraryCorrectedZVertical,0.5591587424278259,-0.4174366295337677,-0.3648616075515747,0.6164122819900513,-0.106595017015934,-0.9939578175544739,-0.0261763222515583,9.3951416015625,-57.81820297241211,-20.40267944335938,2
2017-11-27 14:31:51.951 -0800,127,C4D50155-580C-4885-BACB-A13DEF47355A,1511821910.464011,49.27719357658101,-122.9074406846892,342.6527,-1,-1,10,65,-9999,225622.9650947917,-0.1685028076171875,-1.090240478515625,0.0125274658203125,225622.9360107917,0.3446788251351784,-0.9092399477760951,-0.5297085997711587,225622.9540467917,0.2472691161878321,-1.448903716297441,1.479597430542445,0.5522262454032898,-1.190768122673035,-0.6215176582336426,0.06583026051521301,0.01278150081634521,-0.1471600532531738,XArbitraryCorrectedZVertical,0.5613483786582947,-0.4234987497329712,-0.3751488924026489,0.6039868593215942,-0.09039691090583801,-0.9958442449569702,-0.01107361353933811,9.642768859863281,-57.64687728881836,-19.98751831054688,2
2017-11-27 14:31:51.980 -0800,128,C4D50155-580C-4885-BACB-A13DEF47355A,1511821910.464011,49.27719357658101,-122.9074406846892,342.6527,-1,-1,10,65,-9999,225622.9951537917,0.0072784423828125,-0.860626220703125,0.566162109375,225622.9660707917,0.4672140626830322,-0.3611262417113987,-0.4250873816118318,225622.9891417917,0.2336834428244277,-1.463593265990963,1.500725810126457,-1.477536916732788,-1.450829863548279,-1.062731623649597,-0.06422266364097595,0.07617461681365967,0.1156609058380127,XArbitraryCorrectedZVertical,0.5608377456665039,-0.4262808263301849,-0.3891085684299469,0.5935825705528259,-0.06961219012737274,-0.9975460767745972,-0.007491360418498516,10.52219009399414,-57.55971527099609,-20.03994750976562,2
2017-11-27 14:31:52.012 -0800,129,C4D50155-580C-4885-BACB-A13DEF47355A,1511821910.464011,49.27719357658101,-122.9074406846892,342.6527,-1,-1,10,65,-9999,225623.0252137917,-0.209075927734375,-0.3081512451171875,-0.054840087890625,225622.9961307917,-1.53822240455381,-0.3308429043238897,-0.6641476347594487,225623.0241767917,-0.3310726685765249,-0.9078983565057249,1.500291421540547,-0.3686370253562927,0.1643009334802628,-0.07904840260744095,-0.1549693644046783,0.6807278394699097,0.0002918243408203125,XArbitraryCorrectedZVertical,0.5514600276947021,-0.4173916280269623,-0.403214693069458,0.5992444157600403,-0.05552563443779945,-0.9975155591964722,-0.04335213452577591,10.65974044799805,-56.74930572509766,-21.69537353515625,2
2017-11-27 14:31:52.041 -0800,130,C4D50155-580C-4885-BACB-A13DEF47355A,1511821910.464011,49.27719357658101,-122.9074406846892,342.6527,-1,-1,10,65,-9999,225623.0552737917,-0.0504150390625,-1.347763061523438,-0.1942596435546875,225623.0261907917,-0.1637167627481851,-0.1502749897782282,-0.01721414065405418,225623.0241767917,-0.3310726685765249,-0.9078983565057249,1.500291421540547,-0.3686370253562927,0.1643009334802628,-0.07904840260744095,-0.1549693644046783,0.6807278394699097,0.0002918243408203125,XArbitraryCorrectedZVertical,0.5514600276947021,-0.4173916280269623,-0.403214693069458,0.5992444157600403,-0.05552563443779945,-0.9975155591964722,-0.04335213452577591,10.65974044799805,-56.74930572509766,-21.69537353515625,2
2017-11-27 14:31:52.071 -0800,131,C4D50155-580C-4885-BACB-A13DEF47355A,1511821910.464011,49.27719357658101,-122.9074406846892,342.6527,-1,-1,10,65,-9999,225623.0853337917,-0.160614013671875,-1.045608520507812,0.1215972900390625,225623.0562507917,1.239862342361726,-1.033328607187792,0.2118555299802394,225623.0592717917,-0.04454010785420374,-1.209568602478541,1.505222768131959,1.21542501449585,-1.000458478927612,0.2303126603364944,0.0140400230884552,-0.3653693795204163,-0.157353401184082,XArbitraryCorrectedZVertical,0.5529218912124634,-0.4274322390556335,-0.4019293785095215,0.5916348099708557,-0.06129647791385651,-0.9978508353233337,-0.02315812557935715,11.02687454223633,-57.16884613037109,-21.86178588867188,2
2017-11-27 14:31:52.101 -0800,132,C4D50155-580C-4885-BACB-A13DEF47355A,1511821910.464011,49.27719357658101,-122.9074406846892,342.6527,-1,-1,10,65,-9999,225623.1153937917,0.0038909912109375,-1.029815673828125,0.09417724609375,225623.0863097917,0.8367164786549482,0.2680064173517971,0.4510894212309295,225623.0943357917,0.5273509034365446,-1.79420225293599,1.495140004136618,0.7464315295219421,0.3912102282047272,0.4781209528446198,-0.02578407526016235,-0.05623579025268555,0.1837857961654663,XArbitraryCorrectedZVertical,0.5588635206222534,-0.442768782377243,-0.3937192261219025,0.5801830291748047,-0.07370324432849884,-0.9971394538879395,0.01674525812268257,9.972541809082031,-58.18340301513672,-19.00619506835938,2
2017-11-27 14:31:52.131 -0800,133,C4D50155-580C-4885-BACB-A13DEF47355A,1511821910.464011,49.27719357658101,-122.9074406846892,342.6527,-1,-1,10,65,-9999,225623.1454527917,0.0914459228515625,-0.9312896728515625,-0.1056671142578125,225623.1163697917,0.004440554801598121,0.2144441225597964,0.6036134505497296,225623.1294317917,0.548654806384768,-1.802992034892453,1.473761593275145,0.01363544631749392,-0.04251065477728844,0.6794224381446838,0.1882763504981995,0.0002396702766418457,-0.03331089019775391,XArbitraryCorrectedZVertical,0.5586696863174438,-0.4461336135864258,-0.3828275203704834,0.585060715675354,-0.09428223967552185,-0.9952958226203918,0.02229403890669346,9.255138397216797,-58.88551712036133,-18.15103149414062,2
2017-11-27 14:31:52.161 -0800,134,C4D50155-580C-4885-BACB-A13DEF47355A,1511821910.464011,49.27719357658101,-122.9074406846892,342.6527,-1,-1,10,65,-9999,225623.1755127917,-0.1167449951171875,-0.9811553955078125,0.0295867919921875,225623.1464297917,0.2156899493177355,-0.5215974100391043,0.7886669273194116,225623.1644657917,0.5478719918874525,-1.817812923486101,1.445556737930464,0.2686625719070435,-0.5993003845214844,0.856148898601532,0.130107969045639,0.03971415758132935,-0.05921387672424316,XArbitraryCorrectedZVertical,0.5514287352561951,-0.4595624208450317,-0.3776395916938782,0.5849077105522156,-0.1211205646395683,-0.9921677708625793,0.03054253756999969,8.313854217529297,-59.12504577636719,-17.62274169921875,2
2017-11-27 14:31:52.191 -0800,135,C4D50155-580C-4885-BACB-A13DEF47355A,1511821910.464011,49.27719357658101,-122.9074406846892,342.6527,-1,-1,10,65,-9999,225623.2055727917,-0.18890380859375,-0.9273529052734375,0.00439453125,225623.1764897917,0.004963865955798692,-0.6212078906074471,1.009997451825935,225623.1995607917,0.4900077196389114,-1.78501248574872,1.413458859635029,-0.2448722124099731,-0.9323642253875732,0.8362807631492615,-0.004241853952407837,0.02205657958984375,0.02290439605712891,XArbitraryCorrectedZVertical,0.5389077663421631,-0.4756394922733307,-0.3747707009315491,0.5855700373649597,-0.1531067937612534,-0.9876479506492615,0.03330901265144348,5.786029815673828,-59.1055793762207,-17.36651611328125,2
2017-11-27 14:31:52.221 -0800,136,C4D50155-580C-4885-BACB-A13DEF47355A,1511821910.464011,49.27719357658101,-122.9074406846892,342.6527,-1,-1,10,65,-9999,225623.2356327917,-0.2883453369140625,-0.9064178466796875,0.0321044921875,225623.2065497917,-0.3135003993052937,-0.9975908495716918,0.6001305684761239,225623.2345947917,0.4257900283608942,-1.752195787564563,1.399194431710482,-0.04869682341814041,-0.6188290119171143,0.2110614478588104,-0.121774822473526,0.07933717966079712,-0.0007159709930419922,XArbitraryCorrectedZVertical,0.5270887613296509,-0.4874224066734314,-0.3800268173217773,0.5832464694976807,-0.167959064245224,-0.9853124618530273,0.03080632910132408,3.756904602050781,-59.326416015625,-17.65713500976562,2
2017-11-27 14:31:52.254 -0800,137,C4D50155-580C-4885-BACB-A13DEF47355A,1511821910.464011,49.27719357658101,-122.9074406846892,342.6527,-1,-1,10,65,-9999,225623.2656927917,-0.2378387451171875,-0.991668701171875,0.02276611328125,225623.2366087917,0.02398629299001668,-0.3567048616696492,0.09636275561899112,225623.2345947917,0.4257900283608942,-1.752195787564563,1.399194431710482,-0.04869682341814041,-0.6188290119171143,0.2110614478588104,-0.121774822473526,0.07933717966079712,-0.0007159709930419922,XArbitraryCorrectedZVertical,0.5270887613296509,-0.4874224066734314,-0.3800268173217773,0.5832464694976807,-0.167959064245224,-0.9853124618530273,0.03080632910132408,3.756904602050781,-59.326416015625,-17.65713500976562,2
2017-11-27 14:31:52.281 -0800,138,C4D50155-580C-4885-BACB-A13DEF47355A,1511821910.464011,49.27719357658101,-122.9074406846892,342.6527,-1,-1,10,65,-9999,225623.2957527917,-0.2445068359375,-1.023880004882812,0.1269989013671875,225623.2666687917,0.1465779895529802,-0.2317876928428285,-0.5827843350320019,225623.2696907917,0.4529767408452773,-1.785664824474263,1.404118142014238,0.1521997302770615,-0.1968991011381149,-0.5190947651863098,-0.08037030696868896,-0.004291415214538574,-0.00987708568572998,XArbitraryCorrectedZVertical,0.5282372236251831,-0.4885209202766418,-0.3825936615467072,0.5795987844467163,-0.1620918363332748,-0.9861413240432739,0.03537450730800629,3.762195587158203,-59.67733764648438,-17.32199096679688,2
2017-11-27 14:31:52.311 -0800,139,C4D50155-580C-4885-BACB-A13DEF47355A,1511821910.464011,49.27719357658101,-122.9074406846892,342.6527,-1,-1,10,65,-9999,225623.3258117917,-0.0968017578125,-1.046768188476562,0.01654052734375,225623.2967287917,0.1198808648893719,0.3194738696303415,-0.9275907255833951,225623.3047547917,0.5441974355791237,-1.879127009081655,1.432552079203236,0.1103131026029587,0.4435309171676636,-0.8809852600097656,-0.06124582886695862,-0.06088638305664062,0.1887413263320923,XArbitraryCorrectedZVertical,0.5368661880493164,-0.4823735058307648,-0.3909299671649933,0.5711953639984131,-0.1313048601150513,-0.9904595017433167,0.0418190062046051,6.007930755615234,-60.01789855957031,-17.07089233398438,2
2017-11-27 14:31:52.341 -0800,140,C4D50155-580C-4885-BACB-A13DEF47355A,1511821910.464011,49.27719357658101,-122.9074406846892,342.6527,-1,-1,10,65,-9999,225623.3558717917,-0.0277557373046875,-1.038070678710938,0.070068359375,225623.3267887917,0.06196297013454661,0.3437147608205697,-0.7392967143993047,225623.3398497917,0.6366640641540425,-1.955689074499847,1.456465380093846,0.02839531004428864,0.284301370382309,-0.7159118056297302,0.07083848118782043,-0.009794056415557861,-0.002198934555053711,XArbitraryCorrectedZVertical,0.5469515919685364,-0.4714451134204865,-0.3936728835105896,0.5688629746437073,-0.1057353168725967,-0.9934713244438171,0.04283307865262032,7.231128692626953,-60.22248840332031,-16.85577392578125,2
2017-11-27 14:31:52.371 -0800,141,C4D50155-580C-4885-BACB-A13DEF47355A,1511821910.464011,49.27719357658101,-122.9074406846892,342.6527,-1,-1,10,65,-9999,225623.3859317917,0.026947021484375,-1.043060302734375,0.0381927490234375,225623.3568487917,-0.1051597093317409,0.2355970784660778,-0.5682296270425008,225623.3748847917,0.694903482736371,-2.004712263343804,1.475545618029516,-0.05149396508932114,0.2680628001689911,-0.3951825201511383,0.09418037533760071,-0.01335251331329346,0.01607596874237061,XArbitraryCorrectedZVertical,0.5527960658073425,-0.4630431234836578,-0.397354394197464,0.5675534605979919,-0.08629155904054642,-0.9954670667648315,0.03998484835028648,9.007770538330078,-60.11353302001953,-16.631591796875,2
2017-11-27 14:31:52.401 -0800,142,C4D50155-580C-4885-BACB-A13DEF47355A,1511821910.464011,49.27719357658101,-122.9074406846892,342.6527,-1,-1,10,65,-9999,225623.4159917917,-0.034637451171875,-0.9775238037109375,-0.00634765625,225623.3869087917,-0.09379866412146283,0.2032971955011608,-0.2809480486690372,225623.4099797917,0.7117959233999669,-2.01505060503428,1.486491013008577,-0.1536146998405457,-0.002380487509071827,-0.3200848698616028,0.09138232469558716,-0.05836117267608643,0.003452062606811523,XArbitraryCorrectedZVertical,0.5555846691131592,-0.4576252102851868,-0.3993066847324371,0.5678547620773315,-0.07603196799755096,-0.9964483976364136,0.03619031608104706,10.0571403503418,-60.3824348449707,-16.86892700195312,2
2017-11-27 14:31:52.431 -0800,143,C4D50155-580C-4885-BACB-A13DEF47355A,1511821910.464011,49.27719357658101,-122.9074406846892,342.6527,-1,-1,10,65,-9999,225623.4460517917,-0.0912628173828125,-0.86883544921875,-0.0968170166015625,225623.4169677917,-0.161426976842935,-0.1157308609627014,-0.403145064758451,225623.4450447917,0.7769739268448896,-2.086191759247339,1.503401195473246,-0.016523452475667,-0.2918410003185272,-0.6479402780532837,-0.02955517172813416,0.1243777275085449,-0.1317484378814697,XArbitraryCorrectedZVertical,0.5573137402534485,-0.4538692831993103,-0.4066845774650574,0.5639252066612244,-0.05859485268592834,-0.9977297782897949,0.03319186344742775,11.30851745605469,-60.3293571472168,-17.03341674804688,2
2017-11-27 14:31:52.461 -0800,144,C4D50155-580C-4885-BACB-A13DEF47355A,1511821910.464011,49.27719357658101,-122.9074406846892,342.6527,-1,-1,10,65,-9999,225623.47608575,-0.06439208984375,-1.030593872070312,-0.0162200927734375,225623.4470277917,0.01334616548682309,-0.2991861747622268,-0.719412488436337,225623.4450447917,0.7769739268448896,-2.086191759247339,1.503401195473246,-0.016523452475667,-0.2918410003185272,-0.6479402780532837,-0.02955517172813416,0.1243777275085449,-0.1317484378814697,XArbitraryCorrectedZVertical,0.5573137402534485,-0.4538692831993103,-0.4066845774650574,0.5639252066612244,-0.05859485268592834,-0.9977297782897949,0.03319186344742775,11.30851745605469,-60.3293571472168,-17.03341674804688,2
2017-11-27 14:31:52.494 -0800,145,C4D50155-580C-4885-BACB-A13DEF47355A,1511821910.464011,49.27719357658101,-122.9074406846892,342.6527,-1,-1,10,65,-9999,225623.50614575,0.0732574462890625,-0.9604644775390625,0.0999908447265625,225623.47706275,-0.1066012784298008,-0.4488723396234385,-1.18036625834492,225623.48011475,1.171343108698031,-2.494138184284791,1.528087932620867,-0.07490677386522293,-0.4734093546867371,-1.156753420829773,-0.04079422354698181,-0.02698910236358643,-0.05947232246398926,XArbitraryCorrectedZVertical,0.5617850422859192,-0.4488019347190857,-0.4196378886699677,0.5539659261703491,-0.02574938163161278,-0.9990881085395813,0.03405122086405754,12.17975234985352,-60.37183380126953,-17.20819091796875,2
2017-11-27 14:31:52.522 -0800,146,C4D50155-580C-4885-BACB-A13DEF47355A,1511821910.464011,49.27719357658101,-122.9074406846892,342.6527,-1,-1,10,65,-9999,225623.53620575,0.106231689453125,-1.047561645507812,0.0984649658203125,225623.50712275,-0.2484846476131893,-0.2862887519190821,-1.13686511983513,225623.51514875,2.330531481098316,2.618992537415893,1.539143302903736,-0.235222652554512,-0.3012599945068359,-1.095489740371704,0.06860366463661194,0.02694964408874512,0.07049870491027832,XArbitraryCorrectedZVertical,0.5666386485099792,-0.4388953149318695,-0.4356792271137238,0.5444951057434082,0.01579267531633377,-0.9994990825653076,0.02741691097617149,14.70888137817383,-59.98053741455078,-17.35531616210938,2
2017-11-27 14:31:52.552 -0800,147,C4D50155-580C-4885-BACB-A13DEF47355A,1511821910.464011,49.27719357658101,-122.9074406846892,342.6527,-1,-1,10,65,-9999,225623.56626575,0.0967559814453125,-1.155792236328125,0.079681396484375,225623.53718275,-0.186330728828484,-0.2012686656988474,-0.6292772687103871,225623.55024375,2.923578111601627,2.017601879344466,1.523815900028799,-0.1391651034355164,-0.2017445713281631,-0.4053791165351868,0.03640428185462952,-0.1184282302856445,0.07242333889007568,XArbitraryCorrectedZVertical,0.568585216999054,-0.4322676956653595,-0.4468030333518982,0.5387227535247803,0.04234631359577179,-0.998896598815918,0.02028901875019073,16.526611328125,-59.64034271240234,-17.98971557617188,2
2017-11-27 14:31:52.582 -0800,148,C4D50155-580C-4885-BACB-A13DEF47355A,1511821910.464011,49.27719357658101,-122.9074406846892,342.6527,-1,-1,10,65,-9999,225623.59632575,0.11199951171875,-1.245880126953125,-0.0177001953125,225623.56724175,-0.05293006034921585,-0.002226668987415251,0.1436546376244002,225623.58527775,2.928721486115225,2.012061889234122,1.527166950425656,0.009052718058228493,0.1287470310926437,0.410682201385498,0.05251029133796692,-0.2274225950241089,0.01156091690063477,XArbitraryCorrectedZVertical,0.5674172043800354,-0.4328373968601227,-0.4464813768863678,0.5397621989250183,0.03942389786243439,-0.9990484118461609,0.01862099207937717,16.72376251220703,-59.51320648193359,-17.81307983398438,2
2017-11-27 14:31:52.612 -0800,149,C4D50155-580C-4885-BACB-A13DEF47355A,1511821910.464011,49.27719357658101,-122.9074406846892,342.6527,-1,-1,10,65,-9999,225623.62638475,-0.0240325927734375,-1.267898559570312,-0.0254669189453125,225623.59730175,0.04375706829054692,0.252609884141722,0.5672091037127824,225623.62037375,2.513696072939979,2.437239456793145,1.543145447127132,0.08375385403633118,0.4272364974021912,0.7690613269805908,-0.0596669614315033,-0.3009651899337769,-0.05428481101989746,XArbitraryCorrectedZVertical,0.5656566023826599,-0.4365297257900238,-0.4372763633728027,0.5461347699165344,0.01788840070366859,-0.9996177554130554,0.02105118706822395,16.15733337402344,-59.74327087402344,-18.1546630859375,2
2017-11-27 14:31:52.642 -0800,150,C4D50155-580C-4885-BACB-A13DEF47355A,1511821910.464011,49.27719357658101,-122.9074406846892,342.6527,-1,-1,10,65,-9999,225623.65644475,0.1846466064453125,-1.053421020507812,0.0191192626953125,225623.62736175,0.08282537516590034,0.561748558213684,0.9504795298881901,225623.65543775,1.067344506872935,-2.380961787142947,1.538370613664491,-0.0129190981388092,0.5315486788749695,1.384366989135742,0.1926889717578888,-0.06647419929504395,-0.01190865039825439,XArbitraryCorrectedZVertical,0.5616670250892639,-0.4430209398269653,-0.42037233710289,0.558165967464447,-0.02233986370265484,-0.9994743466377258,0.02347479946911335,13.92031097412109,-59.92691802978516,-17.51095581054688,2
2017-11-27 14:31:52.672 -0800,151,C4D50155-580C-4885-BACB-A13DEF47355A,1511821910.464011,49.27719357658101,-122.9074406846892,342.6527,-1,-1,10,65,-9999,225623.68650475,-0.0080413818359375,-0.885467529296875,0.2103118896484375,225623.65742175,-0.1294698427103112,0.5880523339842876,1.398613907573568,225623.65543775,1.067344506872935,-2.380961787142947,1.538370613664491,-0.0129190981388092,0.5315486788749695,1.384366989135742,0.1926889717578888,-0.06647419929504395,-0.01190865039825439,XArbitraryCorrectedZVertical,0.5616670250892639,-0.4430209398269653,-0.42037233710289,0.558165967464447,-0.02233986370265484,-0.9994743466377258,0.02347479946911335,13.92031097412109,-59.92691802978516,-17.51095581054688,2
2017-11-27 14:31:52.702 -0800,152,C4D50155-580C-4885-BACB-A13DEF47355A,1511821910.464011,49.27719357658101,-122.9074406846892,342.6527,-1,-1,10,65,-9999,225623.71656475,-0.014190673828125,-1.1868896484375,-0.009765625,225623.68748175,-0.6735882745076706,0.9233925184409941,0.7693361062309624,225623.69053275,0.426527473076341,-1.712956176405534,1.504439148245917,-0.6378645896911621,0.9603204131126404,0.8229476809501648,0.0658608078956604,0.108471155166626,0.2059537172317505,XArbitraryCorrectedZVertical,0.5542287230491638,-0.4444404542446136,-0.4032987952232361,0.5767605900764465,-0.0656319260597229,-0.9977991580963135,0.009393589571118355,10.97544097900391,-59.95793914794922,-18.10403442382812,2
2017-11-27 14:31:52.732 -0800,153,C4D50155-580C-4885-BACB-A13DEF47355A,1511821910.464011,49.27719357658101,-122.9074406846892,342.6527,-1,-1,10,65,-9999,225623.74662475,-0.286468505859375,-0.4873046875,0.09814453125,225623.71754075,-0.1132533222006007,0.3544174726093801,0.825114417366018,225623.72556775,0.2210481312451034,-1.488149691004068,1.478131987659062,0.02329279854893684,0.2712591588497162,0.8728581666946411,0.1402325332164764,-0.06885015964508057,-0.1484131813049316,XArbitraryCorrectedZVertical,0.5477664470672607,-0.4428686797618866,-0.3934628665447235,0.5907672643661499,-0.09221312403678894,-0.9957097172737122,-0.007638503797352314,9.252838134765625,-59.58689117431641,-19.52520751953125,2
2017-11-27 14:31:52.762 -0800,154,C4D50155-580C-4885-BACB-A13DEF47355A,1511821910.464011,49.27719357658101,-122.9074406846892,342.6527,-1,-1,10,65,-9999,225623.77668475,-0.16412353515625,-0.7687835693359375,-0.0951385498046875,225623.74760075,0.08370901201558863,0.860572010435442,-0.1750474479220363,225623.76066275,0.2805119142046026,-1.524439355791356,1.46762091905049,0.3314757645130157,0.6084483861923218,-0.1309761852025986,-0.2502086460590363,0.5752485394477844,-0.02472257614135742,XArbitraryCorrectedZVertical,0.551332414150238,-0.4400525689125061,-0.3828185498714447,0.596519947052002,-0.1028797179460526,-0.9946821331977844,-0.004772611428052187,8.715774536132812,-59.44769287109375,-19.37481689453125,2
2017-11-27 14:31:52.792 -0800,155,C4D50155-580C-4885-BACB-A13DEF47355A,1511821910.464011,49.27719357658101,-122.9074406846892,342.6527,-1,-1,10,65,-9999,225623.80674375,-0.1376190185546875,-0.654266357421875,0.3867950439453125,225623.77766075,0.4538431297980714,0.179576419671825,-0.135816954536297,225623.79569675,0.4201570105171728,-1.650197115948939,1.470933502877072,0.2930000722408295,0.262999027967453,0.3301102817058563,0.3571305871009827,-0.1079179644584656,0.03178071975708008,XArbitraryCorrectedZVertical,0.5588061213493347,-0.4378235042095184,-0.3771264553070068,0.5948290228843689,-0.09937910735607147,-0.9950178265571594,0.007907404564321041,9.787715911865234,-59.577880859375,-18.3699951171875,2
2017-11-27 14:31:52.822 -0800,156,C4D50155-580C-4885-BACB-A13DEF47355A,1511821910.464011,49.27719357658101,-122.9074406846892,342.6527,-1,-1,10,65,-9999,225623.83680375,0.0384979248046875,-1.159103393554688,-0.3430328369140625,225623.80772075,-0.847130237465485,1.352550009146794,-0.6813457964469624,225623.83079175,0.2899867162572805,-1.485336904144857,1.477617827067043,0.01223132945597172,0.6257861256599426,0.1056495234370232,-0.02457982301712036,-0.2149093151092529,-0.1153496503829956,XArbitraryCorrectedZVertical,0.5631058812141418,-0.4230142831802368,-0.3719334304332733,0.604678213596344,-0.09269923716783524,-0.9956620335578918,-0.007941365242004395,10.65918731689453,-59.57070922851562,-19.04721069335938,2
2017-11-27 14:31:52.854 -0800,157,C4D50155-580C-4885-BACB-A13DEF47355A,1511821910.464011,49.27719357658101,-122.9074406846892,342.6527,-1,-1,10,65,-9999,225623.86686375,-0.1371002197265625,-0.8904266357421875,-0.00177001953125,225623.83778075,-0.08376041102462715,0.0800274581246631,-0.1715176942132453,225623.86585675,0.2729348873101499,-1.461776296583504,1.482204366418975,0.008504137396812439,0.1901021897792816,-0.1528431922197342,-0.04840478301048279,0.1142271161079407,0.01814067363739014,XArbitraryCorrectedZVertical,0.5649906992912292,-0.41949063539505,-0.3717342615127563,0.605496883392334,-0.08794774115085602,-0.9960783123970032,-0.009626233018934727,11.17032241821289,-59.21495819091797,-19.10531616210938,2
2017-11-27 14:31:52.963 -0800,158,C4D50155-580C-4885-BACB-A13DEF47355A,1511821910.464011,49.27719357658101,-122.9074406846892,342.6527,-1,-1,10,65,-9999,225623.89692375,-0.049713134765625,-1.022476196289062,-0.0363922119140625,225623.86784075,-0.002320678573895048,0.1244186250707579,-0.1773500170005188,225623.86585675,0.2729348873101499,-1.461776296583504,1.482204366418975,0.008504137396812439,0.1901021897792816,-0.1528431922197342,-0.04840478301048279,0.1142271161079407,0.01814067363739014,XArbitraryCorrectedZVertical,0.5649906992912292,-0.41949063539505,-0.3717342615127563,0.605496883392334,-0.08794774115085602,-0.9960783123970032,-0.009626233018934727,11.17032241821289,-59.21495819091797,-19.10531616210938,2
2017-11-27 14:31:53.014 -0800,159,C4D50155-580C-4885-BACB-A13DEF47355A,1511821910.464011,49.27719357658101,-122.9074406846892,342.6527,-1,-1,10,65,-9999,225623.92698375,-0.057159423828125,-1.020263671875,-0.055328369140625,225623.89789975,0.02413942475269623,-0.02740392761691536,-0.1527663769779973,225623.90095175,0.2768250690293999,-1.462895197066085,1.48811492749531,0.03402019292116165,-0.01154844462871552,-0.1486032158136368,0.03553438186645508,-0.02985966205596924,-0.03015351295471191,XArbitraryCorrectedZVertical,0.5670188069343567,-0.4171844124794006,-0.3725176751613617,0.6047124862670898,-0.08210419118404388,-0.9965838193893433,-0.008893677033483982,11.45100402832031,-59.37948989868164,-18.9254150390625,2
2017-11-27 14:31:53.021 -0800,160,C4D50155-580C-4885-BACB-A13DEF47355A,1511821910.464011,49.27719357658101,-122.9074406846892,342.6527,-1,-1,10,65,-9999,225623.95704275,-0.0262603759765625,-1.005844116210938,-0.0117645263671875,225623.92795975,0.1190760576079499,-0.3331454734023722,-0.1804643175792574,225623.93598575,0.3182203657472489,-1.512134271241626,1.494298396237262,0.1425147503614426,-0.3597645163536072,-0.1718985736370087,0.03980752825737,-0.01992279291152954,-0.04710936546325684,XArbitraryCorrectedZVertical,0.5679003596305847,-0.4186274111270905,-0.3757608830928802,0.600869357585907,-0.0762912854552269,-0.9970754384994507,-0.004480544477701187,11.71905136108398,-59.26261520385742,-18.60519409179688,2
2017-11-27 14:31:53.025 -0800,161,C4D50155-580C-4885-BACB-A13DEF47355A,1511821910.464011,49.27719357658101,-122.9074406846892,342.6527,-1,-1,10,65,-9999,225623.98710275,-0.0141448974609375,-1.028732299804688,0.065460205078125,225623.95801975,0.08960525066902407,-0.3830653627714715,-0.1045562370287289,225623.97108175,0.377028038081181,-1.583766564287948,1.498690023155633,0.08009122312068939,-0.312040776014328,-0.07509505748748779,0.0335405170917511,-0.00478053092956543,0.03524422645568848,XArbitraryCorrectedZVertical,0.567684531211853,-0.4221391677856445,-0.3797922432422638,0.5960626602172852,-0.0720384269952774,-0.9974014759063721,0.0009344079298898578,11.64188766479492,-59.41345977783203,-18.41287231445312,2
2017-11-27 14:31:53.027 -0800,162,C4D50155-580C-4885-BACB-A13DEF47355A,1511821910.464011,49.27719357658101,-122.9074406846892,342.6527,-1,-1,10,65,-9999,225624.01716275,-0.075775146484375,-0.9864654541015625,-0.0481719970703125,225624.01813975,0.08322431669719421,-0.02563825181419283,-0.00703181054224522,225624.00611575,0.3760355047335616,-1.592397377856685,1.498952360343271,0.02811335772275925,-0.09667647629976273,0.02337276190519333,-0.003720223903656006,0.01560878753662109,-0.01214003562927246,XArbitraryCorrectedZVertical,0.5658835768699646,-0.4249129295349121,-0.382612943649292,0.5939967036247253,-0.0717649981379509,-0.9974203109741211,0.001550440560095012,11.25872802734375,-59.23011016845703,-18.75711059570312,2
2017-11-27 14:31:53.033 -0800,163,C4D50155-580C-4885-BACB-A13DEF47355A,1511821910.464011,49.27719357658101,-122.9074406846892,342.6527,-1,-1,10,65,-9999,225624.04722275,-0.0626983642578125,-0.999725341796875,0.016510009765625,225624.01813975,0.08322431669719421,-0.02563825181419283,-0.00703181054224522,225624.04121075,0.4140546558347506,-1.63065080619346,1.498895979975256,0.06384756416082382,0.05820300430059433,-0.01600818708539009,-0.005350321531295776,-0.001393496990203857,0.01814854145050049,XArbitraryCorrectedZVertical,0.5666421055793762,-0.4255176484584808,-0.3821441829204559,0.5931416749954224,-0.07170653343200684,-0.9974162578582764,0.004297089762985706,11.25034713745117,-59.45786666870117,-18.5595703125,2
2017-11-27 14:31:53.083 -0800,164,C4D50155-580C-4885-BACB-A13DEF47355A,1511821910.464011,49.27719357658101,-122.9074406846892,342.6527,-1,-1,10,65,-9999,225624.07728275,-0.07525634765625,-0.9739990234375,0.049560546875,225624.04819875,0.03584641458857556,0.04133359169857482,-0.02157160482964183,225624.07627575,0.4320456273269909,-1.64702300673078,1.499790671037384,-0.06193376332521439,0.0309220477938652,-0.03009681031107903,-0.002274602651596069,0.02154326438903809,0.03811538219451904,XArbitraryCorrectedZVertical,0.5675126314163208,-0.4250067472457886,-0.3817283511161804,0.592943549156189,-0.07073869556188583,-0.9974801540374756,0.005402644164860249,11.48748397827148,-59.34451293945312,-18.38916015625,2
2017-11-27 14:31:53.093 -0800,165,C4D50155-580C-4885-BACB-A13DEF47355A,1511821910.464011,49.27719357658101,-122.9074406846892,342.6527,-1,-1,10,65,-9999,225624.10734275,-0.02166748046875,-1.031723022460938,-0.0618896484375,225624.07825875,-0.1395957138070104,0.1414649865761371,-0.02563612128532076,225624.07627575,0.4320456273269909,-1.64702300673078,1.499790671037384,-0.06193376332521439,0.0309220477938652,-0.03009681031107903,-0.002274602651596069,0.02154326438903809,0.03811538219451904,XArbitraryCorrectedZVertical,0.5675126314163208,-0.4250067472457886,-0.3817283511161804,0.592943549156189,-0.07073869556188583,-0.9974801540374756,0.005402644164860249,11.48748397827148,-59.34451293945312,-18.38916015625,2
