loggingTime(txt),loggingSample(N),identifierForVendor(txt),deviceID(txt),locationTimestamp_since1970(s),locationLatitude(WGS84),locationLongitude(WGS84),locationAltitude(m),locationSpeed(m/s),locationCourse(°),locationVerticalAccuracy(m),locationHorizontalAccuracy(m),locationFloor(Z),locationHeadingTimestamp_since1970(s),locationHeadingX(µT),locationHeadingY(µT),locationHeadingZ(µT),locationTrueHeading(°),locationMagneticHeading(°),locationHeadingAccuracy(°),accelerometerTimestamp_sinceReboot(s),accelerometerAccelerationX(G),accelerometerAccelerationY(G),accelerometerAccelerationZ(G),gyroTimestamp_sinceReboot(s),gyroRotationX(rad/s),gyroRotationY(rad/s),gyroRotationZ(rad/s),motionTimestamp_sinceReboot(s),motionYaw(rad),motionRoll(rad),motionPitch(rad),motionRotationRateX(rad/s),motionRotationRateY(rad/s),motionRotationRateZ(rad/s),motionUserAccelerationX(G),motionUserAccelerationY(G),motionUserAccelerationZ(G),motionAttitudeReferenceFrame(txt),motionQuaternionX(R),motionQuaternionY(R),motionQuaternionZ(R),motionQuaternionW(R),motionGravityX(G),motionGravityY(G),motionGravityZ(G),motionMagneticFieldX(µT),motionMagneticFieldY(µT),motionMagneticFieldZ(µT),motionMagneticFieldCalibrationAccuracy(Z),activityTimestamp_sinceReboot(s),activity(txt),activityActivityConfidence(Z),activityActivityStartDate(txt),pedometerStartDate(txt),pedometerNumberofSteps(N),pedometerDistance(m),pedometerFloorAscended(N),pedometerFloorDescended(N),pedometerEndDate(txt),altimeterTimestamp_sinceReboot(s),altimeterReset(bool),altimeterRelativeAltitude(m),altimeterPressure(kPa),deviceOrientation(Z),batteryState(R),batteryLevel(Z),state(N)
2017-11-27 14:31:39.807 -0800,1,BF2B89E4-20AD-4334-A98B-17808832B17C,my_iOS_device,1511821894.063919,49.27724914302564,-122.9073493985784,343.5746,-1,-1,10,65,-9999,1511821899.762145,-10.51125335693359,-27.47745704650879,-50.88889312744141,192.5129089355469,176.2655487060547,20,264203.8464861667,-0.1657562255859375,-0.2733612060546875,-0.99676513671875,264203.8464861667,-0.3578138019475582,0.1518337379642516,-0.1275278656434254,264203.8414281667,1.63011694318387,-0.1888471456906249,0.1859760335213126,-0.4769257605075836,0.1225284337997437,-0.06946121156215668,-0.01703330874443054,-0.08331316709518433,0.03678667545318604,XArbitraryCorrectedZVertical,0.1317180842161179,0.00289272959344089,0.7153893709182739,0.6861888766288757,-0.184489518404007,-0.1849058270454407,-0.9652839303016663,-10.52800750732422,-27.30388069152832,-51.23674011230469,2,264202.4721594167,walking,1,2017-11-27 14:31:38.398 -0800,2017-11-27 14:29:53.937 -0800,30,16.15,0,0,2017-11-27 14:31:35.827 -0800,264200.746601,0,-1.273621,97.77431,1,1,0.75,0
2017-11-27 14:31:39.812 -0800,2,BF2B89E4-20AD-4334-A98B-17808832B17C,my_iOS_device,1511821894.063919,49.27724914302564,-122.9073493985784,343.5746,-1,-1,10,65,-9999,1511821899.762145,-10.51125335693359,-27.47745704650879,-50.88889312744141,192.5129089355469,176.2655487060547,20,264203.8804070417,-0.198272705078125,-0.2358245849609375,-1.008316040039062,264203.8804070417,0.2681957681053018,0.2335560318066411,-0.08794237288437859,264203.8414281667,1.63011694318387,-0.1888471456906249,0.1859760335213126,-0.4769257605075836,0.1225284337997437,-0.06946121156215668,-0.01703330874443054,-0.08331316709518433,0.03678667545318604,XArbitraryCorrectedZVertical,0.1317180842161179,0.00289272959344089,0.7153893709182739,0.6861888766288757,-0.184489518404007,-0.1849058270454407,-0.9652839303016663,-10.52800750732422,-27.30388069152832,-51.23674011230469,2,264202.4721594167,walking,1,2017-11-27 14:31:38.398 -0800,2017-11-27 14:29:53.937 -0800,30,16.15,0,0,2017-11-27 14:31:35.827 -0800,264200.746601,0,-1.273621,97.77431,1,1,0.75,0
2017-11-27 14:31:39.844 -0800,3,BF2B89E4-20AD-4334-A98B-17808832B17C,my_iOS_device,1511821894.063919,49.27724914302564,-122.9073493985784,343.5746,-1,-1,10,65,-9999,1511821899.812292,-10.10187911987305,-26.87712669372559,-50.95717620849609,192.9395599365234,176.6921997070312,20,264203.9143280417,-0.223175048828125,-0.244232177734375,-0.9278106689453125,264203.9143280417,0.4838598847604635,0.2363145340637452,-0.1318549697825862,264203.8766570417,1.624486318971821,-0.1817751332836262,0.1811661027058949,0.1166518107056618,0.223984956741333,-0.1198399215936661,-0.01662555336952209,-0.05354216694831848,-0.04343616962432861,XArbitraryCorrectedZVertical,0.12757608294487,0.003210525261238217,0.7142248749732971,0.6881800889968872,-0.1778171807527542,-0.1801767200231552,-0.9674280881881714,-10.10187911987305,-26.87712669372559,-50.95717620849609,2,264202.4721594167,walking,1,2017-11-27 14:31:38.398 -0800,2017-11-27 14:29:53.937 -0800,30,16.15,0,0,2017-11-27 14:31:35.827 -0800,264200.746601,0,-1.273621,97.77431,1,1,0.75,0
2017-11-27 14:31:39.882 -0800,4,BF2B89E4-20AD-4334-A98B-17808832B17C,my_iOS_device,1511821894.063919,49.27724914302564,-122.9073493985784,343.5746,-1,-1,10,65,-9999,1511821899.86285,-9.381797790527344,-28.04669761657715,-50.7503776550293,193.0340118408203,176.7866516113281,20,264203.9470570417,-0.22711181640625,-0.2547760009765625,-0.9336700439453125,264203.9470570417,0.5659374442922696,0.2783232370986551,-0.2653299404562675,264203.9118280417,1.62364426484637,-0.1734171894978426,0.1938369631074185,0.4378281235694885,0.2280780673027039,-0.1095914095640182,-0.0649656355381012,-0.05420075356960297,0.04008609056472778,XArbitraryCorrectedZVertical,0.1288799643516541,0.01062853820621967,0.7136573791503906,0.6884512305259705,-0.1693178117275238,-0.1926254034042358,-0.9665539860725403,-9.501338958740234,-27.69549751281738,-51.00083923339844,2,264202.4721594167,walking,1,2017-11-27 14:31:38.398 -0800,2017-11-27 14:29:53.937 -0800,30,16.15,0,0,2017-11-27 14:31:35.827 -0800,264200.746601,0,-1.273621,97.77431,1,1,0.75,0
2017-11-27 14:31:39.936 -0800,5,BF2B89E4-20AD-4334-A98B-17808832B17C,my_iOS_device,1511821894.063919,49.27724914302564,-122.9073493985784,343.5746,-1,-1,10,65,-9999,1511821899.912787,-8.159439086914062,-29.60360145568848,-50.22911834716797,193.6114044189453,177.3640441894531,20,264203.9809780417,-0.212799072265625,-0.2900390625,-0.904693603515625,264203.9809780417,0.2688485088884802,0.2743322238890623,-0.3582345813997907,264203.9470570417,1.620778508870704,-0.1634534966031828,0.2136400783304595,0.5804621577262878,0.2856098115444183,-0.2337670177221298,-0.06536863744258881,-0.04467998445034027,0.03063064813613892,XArbitraryCorrectedZVertical,0.1320497244596481,0.02104843966662884,0.7120221257209778,0.6893036365509033,-0.1590271145105362,-0.2120186239480972,-0.9642396569252014,-8.858760833740234,-28.69543647766113,-50.62753295898438,2,264202.4721594167,walking,1,2017-11-27 14:31:38.398 -0800,2017-11-27 14:29:53.937 -0800,30,16.15,0,0,2017-11-27 14:31:35.827 -0800,264200.746601,0,-1.273621,97.77431,1,1,0.75,0
2017-11-27 14:31:39.943 -0800,6,BF2B89E4-20AD-4334-A98B-17808832B17C,my_iOS_device,1511821894.063919,49.27724914302564,-122.9073493985784,343.5746,-1,-1,10,65,-9999,1511821899.912787,-8.159439086914062,-29.60360145568848,-50.22911834716797,193.6114044189453,177.3640441894531,20,264204.0149000417,-0.2086029052734375,-0.2823333740234375,-0.870208740234375,264204.0149000417,-0.1466269917170377,0.2128941628053703,-0.374244440608911,264203.9822280417,1.612480750700183,-0.1520897987636368,0.2303674273790894,0.2960898578166962,0.2783634960651398,-0.3417250514030457,-0.06670112907886505,-0.06075775623321533,0.05826067924499512,XArbitraryCorrectedZVertical,0.1337908655405045,0.0304635651409626,0.7087916731834412,0.6919404268264771,-0.1475017517805099,-0.2283352613449097,-0.9623439311981201,-8.159439086914062,-29.60360145568848,-50.22911834716797,2,264202.4721594167,walking,1,2017-11-27 14:31:38.398 -0800,2017-11-27 14:29:53.937 -0800,30,16.15,0,0,2017-11-27 14:31:35.827 -0800,264200.746601,0,-1.273621,97.77431,1,1,0.75,0
2017-11-27 14:31:39.983 -0800,7,BF2B89E4-20AD-4334-A98B-17808832B17C,my_iOS_device,1511821894.063919,49.27724914302564,-122.9073493985784,343.5746,-1,-1,10,65,-9999,1511821899.963186,-7.210109710693359,-29.57729148864746,-50.32635498046875,194.6814575195312,178.4340972900391,20,264204.0476280417,-0.1943206787109375,-0.2462921142578125,-0.9714202880859375,264204.0476280417,-0.2104365977514452,-0.2297945830830132,-0.5458649328402334,264204.0174570417,1.600520087421347,-0.1399598781189199,0.235334165259785,-0.1163168251514435,0.2367013841867447,-0.3556845486164093,-0.0764847993850708,-0.04142922163009644,0.07636123895645142,XArbitraryCorrectedZVertical,0.1313938945531845,0.0356641411781311,0.70511394739151,0.6958975791931152,-0.1356581598520279,-0.2331679463386536,-0.9629274010658264,-7.429126739501953,-29.59094429016113,-50.09294891357422,2,264202.4721594167,walking,1,2017-11-27 14:31:38.398 -0800,2017-11-27 14:29:53.937 -0800,30,16.15,0,0,2017-11-27 14:31:35.827 -0800,264200.746601,0,-1.273621,97.77431,1,1,0.75,0
2017-11-27 14:31:40.018 -0800,8,BF2B89E4-20AD-4334-A98B-17808832B17C,my_iOS_device,1511821894.063919,49.27724914302564,-122.9073493985784,343.5746,-1,-1,10,65,-9999,1511821900.013566,-6.838237762451172,-29.33862113952637,-50.43760681152344,196.5404663085938,180.2931060791016,20,264204.0815500417,-0.2169036865234375,-0.247406005859375,-0.9344482421875,264204.0815500417,0.1739797866410235,0.1425425015531831,-0.8385711040380793,264204.0526280417,1.582958551225089,-0.1371427521387938,0.229965748659223,-0.2108577340841293,-0.2280258983373642,-0.5356465578079224,-0.05997055768966675,-0.01795122027397156,-0.003684043884277344,XArbitraryCorrectedZVertical,0.1288631856441498,0.03359072655439377,0.6995106339454651,0.7021013498306274,-0.1331141442060471,-0.2279441803693771,-0.9645318984985352,-7.069400787353516,-29.4499454498291,-50.24980926513672,2,264202.4721594167,walking,1,2017-11-27 14:31:38.398 -0800,2017-11-27 14:29:53.937 -0800,30,16.15,0,0,2017-11-27 14:31:35.827 -0800,264200.746601,0,-1.273621,97.77431,1,1,0.75,0
2017-11-27 14:31:40.043 -0800,9,BF2B89E4-20AD-4334-A98B-17808832B17C,my_iOS_device,1511821894.063919,49.27724914302564,-122.9073493985784,343.5746,-1,-1,10,65,-9999,1511821900.013566,-6.838237762451172,-29.33862113952637,-50.43760681152344,196.5404663085938,180.2931060791016,20,264204.1154710417,-0.169708251953125,-0.3139801025390625,-0.965667724609375,264204.1154710417,0.6429712430355746,0.4951514214662904,-0.7960835646391732,264204.0878570417,1.557241123243923,-0.1339491895355316,0.2328099042758353,0.1957364976406097,0.1652359366416931,-0.8317583203315735,-0.09377828240394592,-0.01533545553684235,0.02990323305130005,XArbitraryCorrectedZVertical,0.1291774213314056,0.03406392782926559,0.6904481649398804,0.7109360694885254,-0.1299460828304291,-0.2307125329971313,-0.9643056988716125,-6.442897796630859,-29.68769645690918,-50.49496459960938,2,264202.4721594167,walking,1,2017-11-27 14:31:38.398 -0800,2017-11-27 14:29:53.937 -0800,30,16.15,0,0,2017-11-27 14:31:35.827 -0800,264201.690873,0,-1.257751,97.77415,1,1,0.75,0
2017-11-27 14:31:40.099 -0800,10,BF2B89E4-20AD-4334-A98B-17808832B17C,my_iOS_device,1511821894.063919,49.27724914302564,-122.9073493985784,343.5746,-1,-1,10,65,-9999,1511821900.063787,-4.702808380126953,-31.09816551208496,-49.83370590209961,198.7622680664062,182.5149078369141,20,264204.1482000417,-0.1037445068359375,-0.332275390625,-0.98944091796875,264204.1482000417,0.8805968513039658,0.2376604956786712,-0.8272912852410488,264204.1230280417,1.529662026099532,-0.1141239813401579,0.2541229182163441,0.6627142429351807,0.5112426280975342,-0.7742252945899963,-0.04209407418966293,-0.06531482934951782,-0.005804121494293213,XArbitraryCorrectedZVertical,0.1304504424333572,0.04678411781787872,0.6805011034011841,0.7195196151733398,-0.1102191582322121,-0.2513965964317322,-0.9615878462791443,-5.111663818359375,-30.66011619567871,-49.88085556030273,2,264202.4721594167,walking,1,2017-11-27 14:31:38.398 -0800,2017-11-27 14:29:53.937 -0800,30,16.15,0,0,2017-11-27 14:31:35.827 -0800,264201.690873,0,-1.257751,97.77415,1,1,0.75,0
2017-11-27 14:31:40.114 -0800,11,BF2B89E4-20AD-4334-A98B-17808832B17C,my_iOS_device,1511821900.069607,49.27718604199571,-122.9074187946666,343.5471,-1,-1,10,65,-9999,1511821900.063787,-4.702808380126953,-31.09816551208496,-49.83370590209961,198.7622680664062,182.5149078369141,20,264204.1821210417,-0.1640625,-0.3647308349609375,-0.8820953369140625,264204.1821210417,0.6350552630114231,0.1436264081168454,-0.7014121826284915,264204.1582570417,1.503930452314622,-0.09506272764797177,0.2856573328051575,0.8836765289306641,0.2042828053236008,-0.7987300753593445,-0.003195658326148987,-0.08230176568031311,0.003072202205657959,XArbitraryCorrectedZVertical,0.1359678357839584,0.0627739429473877,0.6704167723655701,0.7267115712165833,-0.09107313305139542,-0.2817882001399994,-0.9551443457603455,-3.626537322998047,-32.64753723144531,-49.44532775878906,2,264202.4721594167,walking,1,2017-11-27 14:31:38.398 -0800,2017-11-27 14:29:53.937 -0800,30,16.15,0,0,2017-11-27 14:31:35.827 -0800,264201.690873,0,-1.257751,97.77415,1,1,0.75,0
2017-11-27 14:31:40.146 -0800,12,BF2B89E4-20AD-4334-A98B-17808832B17C,my_iOS_device,1511821900.069607,49.27718604199571,-122.9074187946666,343.5471,-1,-1,10,65,-9999,1511821900.114402,-3.122570037841797,-33.34097290039062,-48.65496444702148,200.7964630126953,184.5491027832031,20,264204.2160420417,-0.125030517578125,-0.3266143798828125,-0.876007080078125,264204.2160420417,0.2385140388080416,0.09116000411341232,-0.9887486221204107,264204.1934280417,1.480177193345837,-0.08306294315076769,0.3134671907801483,0.5578362345695496,0.1573014855384827,-0.7251784801483154,-0.1033723056316376,-0.03674930334091187,0.07465344667434692,XArbitraryCorrectedZVertical,0.1428165882825851,0.074888676404953,0.6607275605201721,0.7330965399742126,-0.07892445474863052,-0.3083587288856506,-0.9479902386665344,-2.727775573730469,-33.69965362548828,-48.44669342041016,2,264202.4721594167,walking,1,2017-11-27 14:31:38.398 -0800,2017-11-27 14:29:53.937 -0800,30,16.15,0,0,2017-11-27 14:31:35.827 -0800,264201.690873,0,-1.257751,97.77415,1,1,0.75,0
2017-11-27 14:31:40.184 -0800,13,BF2B89E4-20AD-4334-A98B-17808832B17C,my_iOS_device,1511821900.069607,49.27718604199571,-122.9074187946666,343.5471,-1,-1,10,65,-9999,1511821900.164475,-1.560886383056641,-34.53379058837891,-48.10556793212891,203.3582611083984,187.1109008789062,20,264204.2487710417,-0.0260009765625,-0.3873138427734375,-0.8983612060546875,264204.2487710417,0.001278317323238034,0.01472941135701025,-0.8822727785779526,264204.2286570417,1.447407084417539,-0.06853545750369994,0.3273926070682335,0.1587444990873337,0.03341919556260109,-0.9736338257789612,0.003992266952991486,-0.03674691915512085,0.04698634147644043,XArbitraryCorrectedZVertical,0.1444316804409027,0.08251690864562988,0.648745059967041,0.7426014542579651,-0.06484432518482208,-0.3215752243995667,-0.9446609020233154,-1.560886383056641,-34.53379058837891,-48.10556793212891,2,264202.4721594167,walking,1,2017-11-27 14:31:38.398 -0800,2017-11-27 14:29:53.937 -0800,30,16.15,0,0,2017-11-27 14:31:35.827 -0800,264201.690873,0,-1.257751,97.77415,1,1,0.75,0
2017-11-27 14:31:40.214 -0800,14,BF2B89E4-20AD-4334-A98B-17808832B17C,my_iOS_device,1511821900.069607,49.27718604199571,-122.9074187946666,343.5471,-1,-1,10,65,-9999,1511821900.164475,-1.560886383056641,-34.53379058837891,-48.10556793212891,203.3582611083984,187.1109008789062,20,264204.2826920417,0.0063018798828125,-0.3886871337890625,-0.908233642578125,264204.2826920417,0.2970457921941301,0.3734769175827502,-0.8046845096956932,264204.2638280417,1.414220174639417,-0.05724951859795663,0.3306647205763389,0.02816635742783546,0.07257667928934097,-0.8659730553627014,0.03486195206642151,-0.05464643239974976,0.03424280881881714,XArbitraryCorrectedZVertical,0.1434093713760376,0.08541230857372284,0.6369373798370361,0.7526259422302246,-0.05411854013800621,-0.3246718049049377,-0.9442769885063171,-0.7744598388671875,-34.45254516601562,-48.20704650878906,2,264202.4721594167,walking,1,2017-11-27 14:31:38.398 -0800,2017-11-27 14:29:53.937 -0800,30,16.15,0,0,2017-11-27 14:31:35.827 -0800,264201.690873,0,-1.257751,97.77415,1,1,0.75,0
2017-11-27 14:31:40.258 -0800,15,BF2B89E4-20AD-4334-A98B-17808832B17C,my_iOS_device,1511821900.069607,49.27718604199571,-122.9074187946666,343.5471,-1,-1,10,65,-9999,1511821900.214487,-0.02623748779296875,-34.61032867431641,-48.11457061767578,206.0105438232422,189.76318359375,20,264204.3166140417,0.11578369140625,-0.586273193359375,-0.97625732421875,264204.3166140417,0.5851641357820967,0.6274838960323278,0.02585370154638024,264204.2990570417,1.386273102777324,-0.03737108344891828,0.341646411037925,0.5567789673805237,0.478983074426651,-0.4916762709617615,0.2530221939086914,-0.1940749883651733,-0.1056644320487976,XArbitraryCorrectedZVertical,0.142508864402771,0.09443571418523788,0.6271002292633057,0.7599439024925232,-0.0352029912173748,-0.335038810968399,-0.9415462613105774,0.6939239501953125,-34.88827514648438,-48.03297424316406,2,264202.4721594167,walking,1,2017-11-27 14:31:38.398 -0800,2017-11-27 14:29:53.937 -0800,30,16.15,0,0,2017-11-27 14:31:35.827 -0800,264201.690873,0,-1.257751,97.77415,1,1,0.75,0
2017-11-27 14:31:40.284 -0800,16,BF2B89E4-20AD-4334-A98B-17808832B17C,my_iOS_device,1511821900.069607,49.27718604199571,-122.9074187946666,343.5471,-1,-1,10,65,-9999,1511821900.265866,1.577610015869141,-35.66056060791016,-47.12128448486328,206.6721496582031,190.4247894287109,20,264204.3493420417,-0.0715789794921875,-0.41741943359375,-0.932586669921875,264204.3493420417,-0.09624371231826458,0.1228596105686255,-0.1779660061606541,264204.3342280417,1.384588066966863,-0.01584851027497577,0.3599744818287278,0.2092683464288712,0.4954056441783905,0.06088752672076225,0.03784234821796417,-0.109205961227417,0.1235321760177612,XArbitraryCorrectedZVertical,0.1427764594554901,0.1082629039883614,0.6268820762634277,0.7582279443740845,-0.01483208872377872,-0.352250337600708,-0.9357880353927612,1.577610015869141,-35.66056060791016,-47.12128448486328,2,264202.4721594167,walking,1,2017-11-27 14:31:38.398 -0800,2017-11-27 14:29:53.937 -0800,30,16.15,0,0,2017-11-27 14:31:35.827 -0800,264201.690873,0,-1.257751,97.77415,1,1,0.75,0
2017-11-27 14:31:40.330 -0800,17,BF2B89E4-20AD-4334-A98B-17808832B17C,my_iOS_device,1511821900.069607,49.27718604199571,-122.9074187946666,343.5471,-1,-1,10,65,-9999,1511821900.315078,2.710407257080078,-35.79019165039062,-47.13117218017578,207.4093322753906,191.1619720458984,20,264204.3832640417,-0.05206298828125,-0.439300537109375,-0.9311370849609375,264204.3832640417,0.07717840839049632,0.5781275315498893,-0.4464118450923143,264204.3694560417,1.378259531397899,-0.007299163547374035,0.3582498460731365,-0.1359750926494598,0.1685457527637482,-0.3328140079975128,-0.0527651458978653,-0.06960657238960266,0.004800379276275635,XArbitraryCorrectedZVertical,0.1397930830717087,0.1105192750692368,0.6251860857009888,0.7598569989204407,-0.006835691630840302,-0.3506357371807098,-0.9364867806434631,2.334358215332031,-35.87548065185547,-46.70306777954102,2,264202.4721594167,walking,1,2017-11-27 14:31:38.398 -0800,2017-11-27 14:29:53.937 -0800,30,16.15,0,0,2017-11-27 14:31:35.827 -0800,264201.690873,0,-1.257751,97.77415,1,1,0.75,0
2017-11-27 14:31:40.345 -0800,18,BF2B89E4-20AD-4334-A98B-17808832B17C,my_iOS_device,1511821900.069607,49.27718604199571,-122.9074187946666,343.5471,-1,-1,10,65,-9999,1511821900.315078,2.710407257080078,-35.79019165039062,-47.13117218017578,207.4093322753906,191.1619720458984,20,264204.4171850417,0.0338134765625,-0.462677001953125,-0.9779205322265625,264204.4171850417,1.117369981707423,1.749285111477533,-0.3680320847340832,264204.4046280417,1.36257942248774,0.02009328390420517,0.3626511379933926,0.4050032794475555,0.9947522282600403,-0.3857777118682861,-0.05056919157505035,-0.1092197895050049,0.008211195468902588,XArbitraryCorrectedZVertical,0.1338455677032471,0.1212436854839325,0.6208463907241821,0.7628447413444519,0.01878514140844345,-0.3547541797161102,-0.9347706437110901,3.531318664550781,-36.02071380615234,-47.13981628417969,2,264202.4721594167,walking,1,2017-11-27 14:31:38.398 -0800,2017-11-27 14:29:53.937 -0800,30,16.15,0,0,2017-11-27 14:31:35.827 -0800,264201.690873,0,-1.257751,97.77415,1,1,0.75,0
2017-11-27 14:31:40.385 -0800,19,BF2B89E4-20AD-4334-A98B-17808832B17C,my_iOS_device,1511821900.069607,49.27718604199571,-122.9074187946666,343.5471,-1,-1,10,65,-9999,1511821900.365486,6.177799224853516,-37.2618408203125,-45.77597045898438,208.7465057373047,192.4991455078125,20,264204.4499130417,0.0322723388671875,-0.4952850341796875,-0.873382568359375,264204.4499130417,2.861755409411428,4.229279840735519,-0.4749854330599925,264204.4398560417,1.344796423503152,0.09644784299196796,0.4073713847022393,2.106877088546753,2.993574619293213,-0.4756422638893127,-0.03971175849437714,-0.06789886951446533,0.03026151657104492,XArbitraryCorrectedZVertical,0.128661260008812,0.1627798974514008,0.61690753698349,0.7591908574104309,0.08841782063245773,-0.3961971998214722,-0.9138979911804199,7.506008148193359,-38.17137908935547,-44.9224967956543,2,264202.4721594167,walking,1,2017-11-27 14:31:38.398 -0800,2017-11-27 14:29:53.937 -0800,30,16.15,0,0,2017-11-27 14:31:35.827 -0800,264201.690873,0,-1.257751,97.77415,1,1,0.75,0
2017-11-27 14:31:40.417 -0800,20,BF2B89E4-20AD-4334-A98B-17808832B17C,my_iOS_device,1511821900.069607,49.27718604199571,-122.9074187946666,343.5471,-1,-1,10,65,-9999,1511821900.365486,6.177799224853516,-37.2618408203125,-45.77597045898438,208.7465057373047,192.4991455078125,20,264204.4838350417,0.11358642578125,-0.5541839599609375,-0.87030029296875,264204.4838350417,2.937824877524015,4.583159621120813,-0.5453349637833076,264204.4750280417,1.305719943284606,0.2675973078889554,0.5055726282454037,3.197742700576782,4.953502178192139,-0.5174305438995361,-0.2134373039007187,-0.04921504855155945,-0.1049721837043762,XArbitraryCorrectedZVertical,0.1184333562850952,0.2531687021255493,0.6094011664390564,0.7419611811637878,0.23133584856987,-0.4843085110187531,-0.8437582850456238,13.59245300292969,-41.89009857177734,-40.30360412597656,2,264202.4721594167,walking,1,2017-11-27 14:31:38.398 -0800,2017-11-27 14:29:53.937 -0800,30,16.15,0,0,2017-11-27 14:31:35.827 -0800,264201.690873,0,-1.257751,97.77415,1,1,0.75,0
2017-11-27 14:31:40.446 -0800,21,BF2B89E4-20AD-4334-A98B-17808832B17C,my_iOS_device,1511821900.069607,49.27718604199571,-122.9074187946666,343.5471,-1,-1,10,65,-9999,1511821900.415696,15.62697219848633,-43.05078887939453,-38.34413146972656,212.1239929199219,195.8766326904297,20,264204.5177560417,0.3938140869140625,-0.62908935546875,-0.878204345703125,264204.5177560417,2.079111220897231,2.388792647199351,-0.5358913945578866,264204.4750280417,1.305719943284606,0.2675973078889554,0.5055726282454037,3.197742700576782,4.953502178192139,-0.5174305438995361,-0.2134373039007187,-0.04921504855155945,-0.1049721837043762,XArbitraryCorrectedZVertical,0.1184333562850952,0.2531687021255493,0.6094011664390564,0.7419611811637878,0.23133584856987,-0.4843085110187531,-0.8437582850456238,13.59245300292969,-41.89009857177734,-40.30360412597656,2,264202.4721594167,walking,1,2017-11-27 14:31:38.398 -0800,2017-11-27 14:29:53.937 -0800,30,16.15,0,0,2017-11-27 14:31:35.827 -0800,264201.690873,0,-1.257751,97.77415,1,1,0.75,0
2017-11-27 14:31:40.495 -0800,22,BF2B89E4-20AD-4334-A98B-17808832B17C,my_iOS_device,1511821900.069607,49.27718604199571,-122.9074187946666,343.5471,-1,-1,10,65,-9999,1511821900.46636,22.6328239440918,-47.08867645263672,-29.96685981750488,217.0753631591797,200.8280029296875,20,264204.5504850417,0.3702392578125,-0.711151123046875,-0.7458648681640625,264204.5504850417,1.953415876399889,2.232417154312078,-0.3353015686209004,264204.5454280417,1.185615296267037,0.5606809725327598,0.6442730880592346,1.987863779067993,2.21893310546875,-0.3970120847225189,-0.0357133150100708,-0.1161336898803711,-0.09929180145263672,XArbitraryCorrectedZVertical,0.1056951135396957,0.3876441419124603,0.5819151997566223,0.7070590257644653,0.4251633882522583,-0.6006174087524414,-0.677121102809906,23.57567977905273,-47.8363037109375,-28.30220603942871,2,264202.4721594167,walking,1,2017-11-27 14:31:38.398 -0800,2017-11-27 14:29:53.937 -0800,30,16.15,0,0,2017-11-27 14:31:35.827 -0800,264201.690873,0,-1.257751,97.77415,1,1,0.75,0
2017-11-27 14:31:40.516 -0800,23,BF2B89E4-20AD-4334-A98B-17808832B17C,my_iOS_device,1511821900.069607,49.27718604199571,-122.9074187946666,343.5471,-1,-1,10,65,-9999,1511821900.46636,22.6328239440918,-47.08867645263672,-29.96685981750488,217.0753631591797,200.8280029296875,20,264204.5844060417,0.3627777099609375,-0.5767364501953125,-0.459716796875,264204.5844060417,1.680899395742043,1.992272994600799,-0.271967603157181,264204.5454280417,1.185615296267037,0.5606809725327598,0.6442730880592346,1.987863779067993,2.21893310546875,-0.3970120847225189,-0.0357133150100708,-0.1161336898803711,-0.09929180145263672,XArbitraryCorrectedZVertical,0.1056951135396957,0.3876441419124603,0.5819151997566223,0.7070590257644653,0.4251633882522583,-0.6006174087524414,-0.677121102809906,23.57567977905273,-47.8363037109375,-28.30220603942871,2,264202.4721594167,walking,1,2017-11-27 14:31:38.398 -0800,2017-11-27 14:29:53.937 -0800,30,16.15,0,0,2017-11-27 14:31:35.827 -0800,264201.690873,0,-1.257751,97.77415,1,1,0.75,0
2017-11-27 14:31:40.546 -0800,24,BF2B89E4-20AD-4334-A98B-17808832B17C,my_iOS_device,1511821900.069607,49.27718604199571,-122.9074187946666,343.5471,-1,-1,10,65,-9999,1511821900.516421,25.98382186889648,-49.37474822998047,-22.50846099853516,170.0132598876953,153.7658996582031,20,264204.6183280417,0.5032196044921875,-0.517730712890625,-0.3479156494140625,264204.6183280417,0.9304288563570925,-0.1127800784748936,-0.4209629440316261,264204.5806560417,1.126719329385721,0.6722654202294546,0.6934392550885373,1.784822940826416,2.015140295028687,-0.2022988498210907,-0.1111515462398529,0.05546092987060547,0.1285706758499146,XArbitraryCorrectedZVertical,0.1055609658360481,0.433588832616806,0.5689073204994202,0.6907960772514343,0.478934109210968,-0.639185905456543,-0.6017152070999146,25.98382186889648,-49.37474822998047,-22.50846099853516,2,264202.4721594167,walking,1,2017-11-27 14:31:38.398 -0800,2017-11-27 14:29:53.937 -0800,30,16.15,0,0,2017-11-27 14:31:35.827 -0800,264201.690873,0,-1.257751,97.77415,1,1,0.75,0
2017-11-27 14:31:40.586 -0800,25,BF2B89E4-20AD-4334-A98B-17808832B17C,my_iOS_device,1511821900.069607,49.27718604199571,-122.9074187946666,343.5471,-1,-1,10,65,-9999,1511821900.56668,27.98725509643555,-50.33064270019531,-17.41555023193359,170.1868438720703,153.9394836425781,20,264204.6510560417,0.64239501953125,-0.66497802734375,-0.360107421875,264204.6510560417,0.6113536619419359,-0.4804965786198024,-0.2540024510757244,264204.6158280417,1.066743154965305,0.7724263907761636,0.727191221854003,1.296430826187134,0.787209153175354,-0.3913452625274658,-0.06872099637985229,0.1935977935791016,0.1183289289474487,XArbitraryCorrectedZVertical,0.1046809032559395,0.4706577062606812,0.555553138256073,0.677407443523407,0.5213424563407898,-0.6647740006446838,-0.5350464582443237,27.68422317504883,-50.25164794921875,-18.98073387145996,2,264202.4721594167,walking,1,2017-11-27 14:31:38.398 -0800,2017-11-27 14:29:53.937 -0800,30,16.15,0,0,2017-11-27 14:31:35.827 -0800,264201.690873,0,-1.257751,97.77415,1,1,0.75,0
2017-11-27 14:31:40.616 -0800,26,BF2B89E4-20AD-4334-A98B-17808832B17C,my_iOS_device,1511821900.069607,49.27718604199571,-122.9074187946666,343.5471,-1,-1,10,65,-9999,1511821900.56668,27.98725509643555,-50.33064270019531,-17.41555023193359,170.1868438720703,153.9394836425781,20,264204.6849770417,0.5672760009765625,-0.6864013671875,-0.432281494140625,264204.6849770417,1.539869836004133,0.2154225679442916,0.7925868341278992,264204.6510560417,1.03173462317267,0.7806473778035959,0.7351744750458068,0.5389925241470337,-0.574431836605072,-0.2998814582824707,0.1186683773994446,0.001756012439727783,0.1677632331848145,XArbitraryCorrectedZVertical,0.1139341667294502,0.472801685333252,0.5446534156799316,0.6832475066184998,0.5219718813896179,-0.6707165837287903,-0.5269551277160645,28.18643569946289,-50.40095520019531,-17.1961784362793,2,264202.4721594167,walking,1,2017-11-27 14:31:38.398 -0800,2017-11-27 14:29:53.937 -0800,30,16.15,0,0,2017-11-27 14:31:35.827 -0800,264201.690873,0,-1.257751,97.77415,1,1,0.75,0
2017-11-27 14:31:40.654 -0800,27,BF2B89E4-20AD-4334-A98B-17808832B17C,my_iOS_device,1511821900.069607,49.27718604199571,-122.9074187946666,343.5471,-1,-1,10,65,-9999,1511821900.616688,27.69723129272461,-51.23855590820312,-15.21493721008301,172.6437683105469,156.3964080810547,20,264204.7188990417,0.8120880126953125,-0.6293487548828125,-0.2439117431640625,264204.7188990417,0.8418734237897776,0.7468483739863333,-0.1816451632065986,264204.6862270417,1.00158905534379,0.7985498026039144,0.7657847414163148,1.477576017379761,0.1709631979465485,0.6928659081459045,0.06161993741989136,0.005053579807281494,0.06370633840560913,XArbitraryCorrectedZVertical,0.1288158744573593,0.4815868735313416,0.53773033618927,0.6799439191818237,0.5163677334785461,-0.6931028962135315,-0.5029610991477966,27.69723129272461,-51.23855590820312,-15.21493721008301,2,264202.4721594167,walking,1,2017-11-27 14:31:38.398 -0800,2017-11-27 14:29:53.937 -0800,30,16.15,0,0,2017-11-27 14:31:35.827 -0800,264201.690873,0,-1.257751,97.77415,1,1,0.75,0
2017-11-27 14:31:40.687 -0800,28,BF2B89E4-20AD-4334-A98B-17808832B17C,my_iOS_device,1511821900.069607,49.27718604199571,-122.9074187946666,343.5471,-1,-1,10,65,-9999,1511821900.667203,27.79769515991211,-51.95677185058594,-12.06001663208008,173.1250152587891,156.8776550292969,20,264204.7516270417,0.6337890625,-0.9575653076171875,-0.318145751953125,264204.7188990417,0.8418734237897776,0.7468483739863333,-0.1816451632065986,264204.7214560417,0.9679331818243837,0.8453423070162129,0.818314760818237,1.027962684631348,0.8050080537796021,0.003261453937739134,0.3419305086135864,0.16480952501297,0.1784583926200867,XArbitraryCorrectedZVertical,0.1460484266281128,0.5019399523735046,0.5337702631950378,0.6646899580955505,0.5113562941551208,-0.72999507188797,-0.4534522891044617,27.27588272094727,-52.25608062744141,-12.13019943237305,2,264202.4721594167,walking,1,2017-11-27 14:31:38.398 -0800,2017-11-27 14:29:53.937 -0800,30,16.15,0,0,2017-11-27 14:31:35.827 -0800,264201.690873,0,-1.257751,97.77415,1,1,0.75,0
2017-11-27 14:31:40.734 -0800,29,BF2B89E4-20AD-4334-A98B-17808832B17C,my_iOS_device,1511821900.069607,49.27718604199571,-122.9074187946666,343.5471,-1,-1,10,65,-9999,1511821900.717429,28.67998886108398,-51.58904266357422,-11.43512535095215,172.5816802978516,156.3343200683594,20,264204.7855490417,0.4229888916015625,-0.6757049560546875,-0.5203704833984375,264204.7855490417,1.218333081793417,0.5938993041575565,0.07121585702591791,264204.7566270417,0.9523508454812792,0.8724748043077603,0.7976982041273271,-0.6024433374404907,-0.06203946471214294,-0.5837500095367432,0.06531965732574463,-0.2621241807937622,0.1243945360183716,XArbitraryCorrectedZVertical,0.1343503892421722,0.5073978900909424,0.5286851525306702,0.6670730710029602,0.5348848104476929,-0.715750515460968,-0.4489946961402893,28.19526290893555,-51.74262237548828,-12.31528091430664,2,264202.4721594167,walking,1,2017-11-27 14:31:38.398 -0800,2017-11-27 14:29:53.937 -0800,30,16.15,0,0,2017-11-27 14:31:35.827 -0800,264201.690873,0,-1.257751,97.77415,1,1,0.75,0
2017-11-27 14:31:40.747 -0800,30,BF2B89E4-20AD-4334-A98B-17808832B17C,my_iOS_device,1511821900.069607,49.27718604199571,-122.9074187946666,343.5471,-1,-1,10,65,-9999,1511821900.717429,28.67998886108398,-51.58904266357422,-11.43512535095215,172.5816802978516,156.3343200683594,20,264204.8194700417,0.645416259765625,-0.7543487548828125,-0.2222442626953125,264204.8194700417,1.228011541826983,0.4318555392061592,1.286315062307651,264204.7918560417,0.929230993911065,0.8947092113481395,0.7992894573112105,1.261586427688599,0.611133337020874,0.1208266392350197,-0.04547840356826782,0.02115160226821899,0.03178328275680542,XArbitraryCorrectedZVertical,0.1350576281547546,0.5134395360946655,0.5226237177848816,0.6670837998390198,0.5438457727432251,-0.7168608903884888,-0.4362785518169403,28.60885238647461,-51.95864868164062,-10.83283615112305,2,264202.4721594167,walking,1,2017-11-27 14:31:38.398 -0800,2017-11-27 14:29:53.937 -0800,30,16.15,0,0,2017-11-27 14:31:35.827 -0800,264201.690873,0,-1.257751,97.77415,1,1,0.75,0
2017-11-27 14:31:40.787 -0800,31,BF2B89E4-20AD-4334-A98B-17808832B17C,my_iOS_device,1511821900.069607,49.27718604199571,-122.9074187946666,343.5471,-1,-1,10,65,-9999,1511821900.767781,26.61586380004883,-53.43854522705078,-7.727140426635742,173.7850494384766,157.5376892089844,20,264204.852199875,0.820343017578125,-0.892608642578125,-0.28125,264204.852199875,1.41091318443588,0.9288621186877989,1.058394811999836,264204.8270270417,0.8994533337000326,0.9327607344058783,0.8524781605857917,1.192570686340332,0.4664520621299744,1.361955404281616,0.1134769916534424,-0.01535111665725708,0.2238956093788147,XArbitraryCorrectedZVertical,0.1545878946781158,0.5292536020278931,0.5209758281707764,0.6515936255455017,0.5286434292793274,-0.7529136538505554,-0.3919864296913147,27.20101547241211,-52.95494079589844,-8.524005889892578,2,264202.4721594167,walking,1,2017-11-27 14:31:38.398 -0800,2017-11-27 14:29:53.937 -0800,30,16.15,0,0,2017-11-27 14:31:35.827 -0800,264201.690873,0,-1.257751,97.77415,1,1,0.75,0
2017-11-27 14:31:40.818 -0800,32,BF2B89E4-20AD-4334-A98B-17808832B17C,my_iOS_device,1511821900.069607,49.27718604199571,-122.9074187946666,343.5471,-1,-1,10,65,-9999,1511821900.767781,26.61586380004883,-53.43854522705078,-7.727140426635742,173.7850494384766,157.5376892089844,20,264204.886120875,0.58197021484375,-0.72119140625,-0.2844390869140625,264204.886120875,1.165270129705806,0.0235535293128788,0.4520942319102164,264204.862256875,0.8812166291767989,0.9728174135247589,0.9156545713499894,1.430949807167053,0.960405707359314,0.9311882853507996,0.3165079355239868,-0.04767566919326782,0.114135205745697,XArbitraryCorrectedZVertical,0.1745839267969131,0.5459116697311401,0.5250791907310486,0.6291182041168213,0.5035451650619507,-0.792961597442627,-0.3430018126964569,25.08681106567383,-54.59014129638672,-4.808254241943359,2,264202.4721594167,walking,1,2017-11-27 14:31:38.398 -0800,2017-11-27 14:29:53.937 -0800,30,16.15,0,0,2017-11-27 14:31:35.827 -0800,264201.690873,0,-1.257751,97.77415,1,1,0.75,0
2017-11-27 14:31:40.848 -0800,33,BF2B89E4-20AD-4334-A98B-17808832B17C,my_iOS_device,1511821900.069607,49.27718604199571,-122.9074187946666,343.5471,-1,-1,10,65,-9999,1511821900.817965,24.65090560913086,-55.04638671875,-3.378721237182617,174.4459533691406,158.1985931396484,20,264204.920042875,0.5131683349609375,-0.77288818359375,-0.1470184326171875,264204.920042875,0.2735615050695934,0.3629467786325769,0.3499508188290992,264204.897427875,0.8357068299619806,1.020955784501808,0.9573659756281253,1.007869958877563,0.1073155999183655,0.4359387755393982,-0.01749476790428162,0.07503283023834229,0.05039083957672119,XArbitraryCorrectedZVertical,0.1913233399391174,0.5594518184661865,0.5199586749076843,0.6164810061454773,0.4908223748207092,-0.8176780343055725,-0.3008180856704712,24.38471603393555,-55.35441589355469,-2.986177444458008,2,264202.4721594167,walking,1,2017-11-27 14:31:38.398 -0800,2017-11-27 14:29:53.937 -0800,30,16.15,0,0,2017-11-27 14:31:35.827 -0800,264201.690873,0,-1.257751,97.77415,1,1,0.75,0
2017-11-27 14:31:40.897 -0800,34,BF2B89E4-20AD-4334-A98B-17808832B17C,my_iOS_device,1511821900.069607,49.27718604199571,-122.9074187946666,343.5471,-1,-1,10,65,-9999,1511821900.868316,23.81439590454102,-55.64769744873047,-1.72003173828125,174.6156616210938,158.3683013916016,20,264204.952770875,0.455474853515625,-0.9898834228515625,-0.256317138671875,264204.952770875,0.6680670089357182,0.4256375906930422,-0.04128299163786331,264204.932656875,0.8244763801901058,1.04151145877021,0.9774910479538543,0.262452095746994,0.3120150864124298,0.2714531719684601,-0.03821563720703125,0.01722276210784912,0.03116947412490845,XArbitraryCorrectedZVertical,0.1971558481454849,0.565667986869812,0.5208947062492371,0.6081237196922302,0.4825973510742188,-0.8290972113609314,-0.2822985947132111,23.81439590454102,-55.64769744873047,-1.72003173828125,2,264202.4721594167,walking,1,2017-11-27 14:31:38.398 -0800,2017-11-27 14:29:53.937 -0800,30,16.15,0,0,2017-11-27 14:31:35.827 -0800,264201.690873,0,-1.257751,97.77415,1,1,0.75,0
2017-11-27 14:31:40.918 -0800,35,BF2B89E4-20AD-4334-A98B-17808832B17C,my_iOS_device,1511821900.069607,49.27718604199571,-122.9074187946666,343.5471,-1,-1,10,65,-9999,1511821900.868316,23.81439590454102,-55.64769744873047,-1.72003173828125,174.6156616210938,158.3683013916016,20,264204.986692875,0.475982666015625,-0.8908233642578125,-0.2409515380859375,264204.986692875,0.8144846761910757,0.09545621558392815,-0.1232265941668384,264204.967827875,0.7944189875201584,1.07903992221721,0.9880501847757212,0.83751380443573,0.3971327841281891,-0.1378781199455261,-0.04931354522705078,-0.1526095271110535,0.01611590385437012,XArbitraryCorrectedZVertical,0.2001750916242599,0.5744629502296448,0.5168435573577881,0.6023216843605042,0.4851045608520508,-0.834954559803009,-0.2598445117473602,23.84394454956055,-55.89551544189453,-0.1462135314941406,2,264202.4721594167,walking,1,2017-11-27 14:31:38.398 -0800,2017-11-27 14:29:53.937 -0800,30,16.15,0,0,2017-11-27 14:31:35.827 -0800,264201.690873,0,-1.257751,97.77415,1,1,0.75,0
2017-11-27 14:31:40.949 -0800,36,BF2B89E4-20AD-4334-A98B-17808832B17C,my_iOS_device,1511821900.069607,49.27718604199571,-122.9074187946666,343.5471,-1,-1,10,65,-9999,1511821900.918714,23.97262954711914,-55.83058929443359,0.4963455200195312,174.8716888427734,158.6243286132812,20,264205.020613875,0.488372802734375,-0.81988525390625,-0.1235809326171875,264205.020613875,0.3414377580885519,0.0974242916294967,0.1587891157832115,264205.003056875,0.7439572539078827,1.126832350228464,0.9972555635746444,0.6819396018981934,0.03973270207643509,-0.01568548381328583,0.01900047063827515,-0.009029269218444824,0.07003587484359741,XArbitraryCorrectedZVertical,0.2061735242605209,0.5839195847511292,0.5078084468841553,0.5988799929618835,0.4900021851062775,-0.8399850130081177,-0.2330607920885086,24.08214950561523,-55.88854217529297,1.429534912109375,2,264202.4721594167,walking,1,2017-11-27 14:31:38.398 -0800,2017-11-27 14:29:53.937 -0800,30,16.15,0,0,2017-11-27 14:31:35.827 -0800,264201.690873,0,-1.257751,97.77415,1,1,0.75,0
2017-11-27 14:31:40.989 -0800,37,BF2B89E4-20AD-4334-A98B-17808832B17C,my_iOS_device,1511821900.069607,49.27718604199571,-122.9074187946666,343.5471,-1,-1,10,65,-9999,1511821900.968929,23.79923629760742,-56.02806091308594,2.28346061706543,175.3977813720703,159.1504211425781,20,264205.053342875,0.510986328125,-0.7637176513671875,-0.127777099609375,264205.053342875,0.2139192135089418,-0.02265231559999598,0.2424038518962114,264205.038227875,0.7249693308975891,1.146162926367227,1.007809915891156,0.2138839960098267,0.0757729783654213,0.2425932884216309,0.01759660243988037,0.08588415384292603,0.09802407026290894,XArbitraryCorrectedZVertical,0.2109685093164444,0.5878366231918335,0.5057135224342346,0.5951389074325562,0.4863096475601196,-0.8456649780273438,-0.2198807895183563,23.79923629760742,-56.02806091308594,2.28346061706543,2,264202.4721594167,walking,1,2017-11-27 14:31:38.398 -0800,2017-11-27 14:29:53.937 -0800,30,16.15,0,0,2017-11-27 14:31:35.827 -0800,264202.635114,0,-1.239258,97.77392,1,1,0.75,0
2017-11-27 14:31:41.019 -0800,38,BF2B89E4-20AD-4334-A98B-17808832B17C,my_iOS_device,1511821900.069607,49.27718604199571,-122.9074187946666,343.5471,-1,-1,10,65,-9999,1511821900.968929,23.79923629760742,-56.02806091308594,2.28346061706543,175.3977813720703,159.1504211425781,20,264205.087263875,0.4590301513671875,-0.806793212890625,-0.13079833984375,264205.087263875,0.5239495139138624,0.03207671006556839,-0.02619618406256443,264205.073456875,0.7168095751643078,1.152223543060154,1.0188892300096,0.3647190034389496,-0.1225971356034279,0.1526062786579132,-0.01780009269714355,0.06115138530731201,0.03915762901306152,XArbitraryCorrectedZVertical,0.2161563783884048,0.5888314843177795,0.5056058168411255,0.5923787951469421,0.4790427386760712,-0.851526141166687,-0.2131078094244003,23.42269515991211,-55.89829254150391,2.881856918334961,2,264202.4721594167,walking,1,2017-11-27 14:31:38.398 -0800,2017-11-27 14:29:53.937 -0800,30,16.15,0,0,2017-11-27 14:31:35.827 -0800,264202.635114,0,-1.239258,97.77392,1,1,0.75,0
2017-11-27 14:31:41.052 -0800,39,BF2B89E4-20AD-4334-A98B-17808832B17C,my_iOS_device,1511821900.069607,49.27718604199571,-122.9074187946666,343.5471,-1,-1,10,65,-9999,1511821901.019027,23.46554946899414,-55.94944763183594,3.140253067016602,175.9130859375,159.6657257080078,20,264205.121184875,0.4891510009765625,-0.80072021484375,-0.1358795166015625,264205.121184875,0.3078100230041214,0.1172909407292698,-0.1980859218800937,264205.108627875,0.6859885525961751,1.179441081708018,1.024892811862221,0.4535876214504242,0.07875990122556686,-0.1326656192541122,-0.006434381008148193,0.05207669734954834,0.1136266589164734,XArbitraryCorrectedZVertical,0.2207521498203278,0.5935059785842896,0.5003972053527832,0.5904383659362793,0.4799298942089081,-0.8546585440635681,-0.1980382800102234,23.63342666625977,-56.13967132568359,3.693609237670898,2,264202.4721594167,walking,1,2017-11-27 14:31:38.398 -0800,2017-11-27 14:29:53.937 -0800,30,16.15,0,0,2017-11-27 14:31:35.827 -0800,264202.635114,0,-1.239258,97.77392,1,1,0.75,0
2017-11-27 14:31:41.089 -0800,40,BF2B89E4-20AD-4334-A98B-17808832B17C,my_iOS_device,1511821900.069607,49.27718604199571,-122.9074187946666,343.5471,-1,-1,10,65,-9999,1511821901.069497,23.71718978881836,-55.76201629638672,4.309850692749023,176.2155303955078,159.9681701660156,20,264205.153913875,0.4627838134765625,-0.8353424072265625,-0.1272125244140625,264205.153913875,0.06761739376100286,0.2539808794708948,-0.2039115867646421,264205.143856875,0.6637221515235214,1.202911049322891,1.022368104471907,0.1410651803016663,0.1757613271474838,-0.2001647055149078,-0.02365827560424805,0.02840912342071533,0.04287362098693848,XArbitraryCorrectedZVertical,0.2205639630556107,0.5979994535446167,0.4960038065910339,0.5896815657615662,0.4864573776721954,-0.8533450365066528,-0.1874963790178299,23.8345832824707,-55.85443115234375,4.632474899291992,2,264202.4721594167,walking,1,2017-11-27 14:31:38.398 -0800,2017-11-27 14:29:53.937 -0800,30,16.15,0,0,2017-11-27 14:31:35.827 -0800,264202.635114,0,-1.239258,97.77392,1,1,0.75,0
2017-11-27 14:31:41.136 -0800,41,BF2B89E4-20AD-4334-A98B-17808832B17C,my_iOS_device,1511821900.069607,49.27718604199571,-122.9074187946666,343.5471,-1,-1,10,65,-9999,1511821901.119676,24.15773391723633,-55.70107269287109,5.073122024536133,175.8180999755859,159.5707397460938,20,264205.187834875,0.44244384765625,-0.85113525390625,-0.1569061279296875,264205.187834875,0.1189514216689342,0.04872519530408975,-0.2012087445743206,264205.179027875,0.6544851598299057,1.21906874944452,1.017123694106532,0.07405447214841843,0.1876678317785263,-0.1859575361013412,-0.03818774223327637,0.007169604301452637,0.03779488801956177,XArbitraryCorrectedZVertical,0.2173185050487518,0.6018280982971191,0.4941600859165192,0.5885377526283264,0.4936168491840363,-0.8505991101264954,-0.1811512112617493,24.0313835144043,-55.83079528808594,4.979742050170898,2,264202.4721594167,walking,1,2017-11-27 14:31:38.398 -0800,2017-11-27 14:29:53.937 -0800,30,16.15,0,0,2017-11-27 14:31:35.827 -0800,264202.635114,0,-1.239258,97.77392,1,1,0.75,0
2017-11-27 14:31:41.150 -0800,42,BF2B89E4-20AD-4334-A98B-17808832B17C,my_iOS_device,1511821900.069607,49.27718604199571,-122.9074187946666,343.5471,-1,-1,10,65,-9999,1511821901.119676,24.15773391723633,-55.70107269287109,5.073122024536133,175.8180999755859,159.5707397460938,20,264205.221756875,0.5216522216796875,-0.901214599609375,-0.12921142578125,264205.221756875,0.3328985983693219,0.1117947088715643,-0.06526262672515479,264205.179027875,0.6544851598299057,1.21906874944452,1.017123694106532,0.07405447214841843,0.1876678317785263,-0.1859575361013412,-0.03818774223327637,0.007169604301452637,0.03779488801956177,XArbitraryCorrectedZVertical,0.2173185050487518,0.6018280982971191,0.4941600859165192,0.5885377526283264,0.4936168491840363,-0.8505991101264954,-0.1811512112617493,24.0313835144043,-55.83079528808594,4.979742050170898,2,264202.4721594167,walking,1,2017-11-27 14:31:38.398 -0800,2017-11-27 14:29:53.937 -0800,30,16.15,0,0,2017-11-27 14:31:35.827 -0800,264202.635114,0,-1.239258,97.77392,1,1,0.75,0
2017-11-27 14:31:41.190 -0800,43,BF2B89E4-20AD-4334-A98B-17808832B17C,my_iOS_device,1511821900.069607,49.27718604199571,-122.9074187946666,343.5471,-1,-1,10,65,-9999,1511821901.170008,24.37218856811523,-55.65342712402344,5.823896408081055,175.9853668212891,159.7380065917969,20,264205.254484875,0.54522705078125,-0.879852294921875,-0.1222991943359375,264205.254484875,0.2431926802110928,0.1367346798479383,0.1247997234227482,264205.249427875,0.6207570701356153,1.25540480976682,1.016960166876869,0.2728745937347412,0.2231680154800415,0.09487749636173248,0.04427725076675415,-0.04310256242752075,0.06359416246414185,XArbitraryCorrectedZVertical,0.218540832400322,0.6088256239891052,0.4881870150566101,0.5858667492866516,0.5000038146972656,-0.8505131602287292,-0.1631425321102142,24.28298568725586,-55.59789276123047,5.931657791137695,2,264202.4721594167,walking,1,2017-11-27 14:31:38.398 -0800,2017-11-27 14:29:53.937 -0800,30,16.15,0,0,2017-11-27 14:31:35.827 -0800,264202.635114,0,-1.239258,97.77392,1,1,0.75,0
2017-11-27 14:31:41.220 -0800,44,BF2B89E4-20AD-4334-A98B-17808832B17C,my_iOS_device,1511821900.069607,49.27718604199571,-122.9074187946666,343.5471,-1,-1,10,65,-9999,1511821901.170008,24.37218856811523,-55.65342712402344,5.823896408081055,175.9853668212891,159.7380065917969,20,264205.288406875,0.5087890625,-0.9105072021484375,-0.1053466796875,264205.288406875,0.349237890605285,0.1381312415235759,0.05997412143247544,264205.249427875,0.6207570701356153,1.25540480976682,1.016960166876869,0.2728745937347412,0.2231680154800415,0.09487749636173248,0.04427725076675415,-0.04310256242752075,0.06359416246414185,XArbitraryCorrectedZVertical,0.218540832400322,0.6088256239891052,0.4881870150566101,0.5858667492866516,0.5000038146972656,-0.8505131602287292,-0.1631425321102142,24.28298568725586,-55.59789276123047,5.931657791137695,2,264202.4721594167,walking,1,2017-11-27 14:31:38.398 -0800,2017-11-27 14:29:53.937 -0800,30,16.15,0,0,2017-11-27 14:31:35.827 -0800,264202.635114,0,-1.239258,97.77392,1,1,0.75,0
2017-11-27 14:31:41.250 -0800,45,BF2B89E4-20AD-4334-A98B-17808832B17C,my_iOS_device,1511821900.069607,49.27718604199571,-122.9074187946666,343.5471,-1,-1,10,65,-9999,1511821901.220259,23.9876823425293,-55.54718017578125,6.509527206420898,176.0267486572266,159.7793884277344,20,264205.322327875,0.5311431884765625,-0.816619873046875,-0.045806884765625,264205.322327875,0.3830453890632959,0.2415258076848122,-0.07672753521794591,264205.284656875,0.6068312089431147,1.271482856629524,1.024106935635005,0.3023712933063507,0.114501565694809,0.1112427040934563,0.01169690489768982,-0.05779802799224854,0.04555940628051758,XArbitraryCorrectedZVertical,0.2215799689292908,0.6117671728134155,0.4872183501720428,0.5824576020240784,0.4967412352561951,-0.8542502522468567,-0.15328648686409,23.9876823425293,-55.54718017578125,6.509527206420898,2,264202.4721594167,walking,1,2017-11-27 14:31:38.398 -0800,2017-11-27 14:29:53.937 -0800,30,16.15,0,0,2017-11-27 14:31:35.827 -0800,264202.635114,0,-1.239258,97.77392,1,1,0.75,0
2017-11-27 14:31:41.296 -0800,46,BF2B89E4-20AD-4334-A98B-17808832B17C,my_iOS_device,1511821900.069607,49.27718604199571,-122.9074187946666,343.5471,-1,-1,10,65,-9999,1511821901.270681,23.98495864868164,-55.47806549072266,7.807706832885742,176.0887451171875,159.8413848876953,20,264205.355056875,0.4648590087890625,-0.88739013671875,-0.10516357421875,264205.355056875,0.5351955105650489,0.005937251334222654,-0.4034713019919857,264205.319827875,0.5824344939709498,1.298561364601226,1.028530245971082,0.3935451805591583,0.2202413380146027,-0.03538772836327553,0.02722728252410889,0.03627467155456543,0.0868682861328125,XArbitraryCorrectedZVertical,0.2241637706756592,0.6167405247688293,0.484001636505127,0.5788949728012085,0.4970647096633911,-0.8565413951873779,-0.1387634575366974,23.84373092651367,-55.57353210449219,7.552457809448242,2,264202.4721594167,walking,1,2017-11-27 14:31:38.398 -0800,2017-11-27 14:29:53.937 -0800,30,16.15,0,0,2017-11-27 14:31:35.827 -0800,264202.635114,0,-1.239258,97.77392,1,1,0.75,0
2017-11-27 14:31:41.321 -0800,47,BF2B89E4-20AD-4334-A98B-17808832B17C,my_iOS_device,1511821900.069607,49.27718604199571,-122.9074187946666,343.5471,-1,-1,10,65,-9999,1511821901.270681,23.98495864868164,-55.47806549072266,7.807706832885742,176.0887451171875,159.8413848876953,20,264205.388977875,0.507537841796875,-0.8868560791015625,-0.035888671875,264205.388977875,0.6310037960450855,0.08201311103342618,-0.5082022423882238,264205.355056875,0.5519676471979859,1.330833010816704,1.026810681435714,0.4922494888305664,0.05149704217910767,-0.3256931900978088,-0.04444599151611328,-0.03231728076934814,0.01707625389099121,XArbitraryCorrectedZVertical,0.2251980900764465,0.622723400592804,0.4784791767597198,0.5766752958297729,0.5027132034301758,-0.8556526899337769,-0.1230027750134468,24.17111587524414,-55.18854522705078,8.452543258666992,2,264202.4721594167,walking,1,2017-11-27 14:31:38.398 -0800,2017-11-27 14:29:53.937 -0800,30,16.15,0,0,2017-11-27 14:31:35.827 -0800,264202.635114,0,-1.239258,97.77392,1,1,0.75,0
2017-11-27 14:31:41.351 -0800,48,BF2B89E4-20AD-4334-A98B-17808832B17C,my_iOS_device,1511821900.069607,49.27718604199571,-122.9074187946666,343.5471,-1,-1,10,65,-9999,1511821901.320827,25.13119125366211,-54.91059875488281,9.468587875366211,176.8468933105469,160.5995330810547,20,264205.422899875,0.5533905029296875,-0.8805694580078125,-0.032501220703125,264205.422899875,0.4348603838640956,0.09669937918077715,-0.1160690824211415,264205.390227875,0.5032147551405212,1.372872966529674,1.014406047511221,0.6581298112869263,0.07727623730897903,-0.5291810631752014,-0.01493692398071289,-0.03759753704071045,0.06347060203552246,XArbitraryCorrectedZVertical,0.2259654402732849,0.6300927996635437,0.466490775346756,0.5781903266906738,0.5178055167198181,-0.8491670489311218,-0.1038453653454781,25.13119125366211,-54.91059875488281,9.468587875366211,2,264202.4721594167,walking,1,2017-11-27 14:31:38.398 -0800,2017-11-27 14:29:53.937 -0800,30,16.15,0,0,2017-11-27 14:31:35.827 -0800,264202.635114,0,-1.239258,97.77392,1,1,0.75,0
2017-11-27 14:31:41.391 -0800,49,BF2B89E4-20AD-4334-A98B-17808832B17C,my_iOS_device,1511821900.069607,49.27718604199571,-122.9074187946666,343.5471,-1,-1,10,65,-9999,1511821901.371094,25.45748519897461,-54.04472351074219,10.98100090026855,177.3654174804688,161.1180572509766,20,264205.455627875,0.5711212158203125,-0.99188232421875,-0.045135498046875,264205.455627875,0.6402819829668126,0.001590439802995321,0.02268001247533281,264205.425456875,0.4655480597589451,1.408496080485515,1.006744227261855,0.4385972321033478,0.09190346300601959,-0.1358638405799866,0.02170497179031372,-0.05268561840057373,0.04993313550949097,XArbitraryCorrectedZVertical,0.2268779873847961,0.6366578340530396,0.4578963220119476,0.5775112509727478,0.5275809168815613,-0.8450957536697388,-0.08638636022806168,25.58433151245117,-54.30869293212891,10.79533195495605,2,264202.4721594167,walking,1,2017-11-27 14:31:38.398 -0800,2017-11-27 14:29:53.937 -0800,30,16.15,0,0,2017-11-27 14:31:35.827 -0800,264202.635114,0,-1.239258,97.77392,1,1,0.75,0
2017-11-27 14:31:41.421 -0800,50,BF2B89E4-20AD-4334-A98B-17808832B17C,my_iOS_device,1511821900.069607,49.27718604199571,-122.9074187946666,343.5471,-1,-1,10,65,-9999,1511821901.371094,25.45748519897461,-54.04472351074219,10.98100090026855,177.3654174804688,161.1180572509766,20,264205.489549875,0.5735321044921875,-0.9099273681640625,-0.0008544921875,264205.489549875,0.9340057480171778,-0.03501417674792579,0.01714063740796799,264205.460627875,0.4323408431412523,1.437921373587548,1.009576097965292,0.6398543119430542,0.003358499146997929,0.03289173170924187,0.04193764925003052,-0.1444215178489685,0.03321719169616699,XArbitraryCorrectedZVertical,0.2318047285079956,0.6411019563674927,0.4523761570453644,0.5749835968017578,0.5275203585624695,-0.8466063141822815,-0.07050970196723938,25.59110641479492,-53.98311614990234,11.6117992401123,2,264202.4721594167,walking,1,2017-11-27 14:31:38.398 -0800,2017-11-27 14:29:53.937 -0800,30,16.15,0,0,2017-11-27 14:31:35.827 -0800,264202.635114,0,-1.239258,97.77392,1,1,0.75,0
2017-11-27 14:31:41.456 -0800,51,BF2B89E4-20AD-4334-A98B-17808832B17C,my_iOS_device,1511821900.069607,49.27718604199571,-122.9074187946666,343.5471,-1,-1,10,65,-9999,1511821901.421386,25.48323440551758,-53.92880249023438,12.70390129089355,178.4451599121094,162.1977996826172,20,264205.523470875,0.5848388671875,-0.8794708251953125,0.0938720703125,264205.523470875,0.4825607947807228,0.06379069759066799,0.03926484816380126,264205.495856875,0.3763933190401856,1.485640870152704,1.013933139412664,0.9314673542976379,-0.03435086086392403,0.02950986474752426,0.06145668029785156,-0.03497874736785889,0.05978327989578247,XArbitraryCorrectedZVertical,0.2406824976205826,0.6477623581886292,0.4430694878101349,0.5711044669151306,0.5266017913818359,-0.8489171862602234,-0.04495172575116158,25.56026077270508,-53.78899383544922,13.27085304260254,2,264202.4721594167,walking,1,2017-11-27 14:31:38.398 -0800,2017-11-27 14:29:53.937 -0800,30,16.15,0,0,2017-11-27 14:31:35.827 -0800,264202.635114,0,-1.239258,97.77392,1,1,0.75,0
2017-11-27 14:31:41.491 -0800,52,BF2B89E4-20AD-4334-A98B-17808832B17C,my_iOS_device,1511821900.069607,49.27718604199571,-122.9074187946666,343.5471,-1,-1,10,65,-9999,1511821901.471674,25.50072860717773,-53.23024749755859,14.5441951751709,179.3032684326172,163.055908203125,20,264205.556199875,0.462554931640625,-0.821441650390625,0.04986572265625,264205.556199875,0.2905958823500672,-0.08051907766189172,-0.05573410266096028,264205.531027875,0.3313561428021177,1.525922389380236,1.017150299312484,0.4554756581783295,0.06769509613513947,0.03673090413212776,0.0297386646270752,-0.03416776657104492,0.09040427207946777,XArbitraryCorrectedZVertical,0.2475846409797668,0.6533825993537903,0.436014860868454,0.5671678185462952,0.5252540111541748,-0.8506131172180176,-0.02358604967594147,25.36188888549805,-53.35597991943359,14.77135276794434,2,264202.4721594167,walking,1,2017-11-27 14:31:38.398 -0800,2017-11-27 14:29:53.937 -0800,30,16.15,0,0,2017-11-27 14:31:35.827 -0800,264202.635114,0,-1.239258,97.77392,1,1,0.75,0
2017-11-27 14:31:41.535 -0800,53,BF2B89E4-20AD-4334-A98B-17808832B17C,my_iOS_device,1511821900.069607,49.27718604199571,-122.9074187946666,343.5471,-1,-1,10,65,-9999,1511821901.522049,25.87296676635742,-53.16571807861328,15.7357120513916,180.0794982910156,163.8321380615234,20,264205.590120875,0.4051666259765625,-0.732818603515625,0.047393798828125,264205.590120875,0.3150500927436108,-0.2100818646942467,-0.008178035075415325,264205.566256875,0.3097245900111807,1.544001217080263,1.016412203202179,0.2809086441993713,-0.1205142289400101,-0.03674012050032616,-0.0758129358291626,0.08237206935882568,0.07637465000152588,XArbitraryCorrectedZVertical,0.2504933774471283,0.655897319316864,0.4319369196891785,0.5661073327064514,0.5262218713760376,-0.8502247929573059,-0.01410354860126972,25.65030288696289,-53.15068054199219,15.7036304473877,2,264202.4721594167,walking,1,2017-11-27 14:31:38.398 -0800,2017-11-27 14:29:53.937 -0800,30,16.15,0,0,2017-11-27 14:31:35.827 -0800,264202.635114,0,-1.239258,97.77392,1,1,0.75,0
2017-11-27 14:31:41.552 -0800,54,BF2B89E4-20AD-4334-A98B-17808832B17C,my_iOS_device,1511821900.069607,49.27718604199571,-122.9074187946666,343.5471,-1,-1,10,65,-9999,1511821901.522049,25.87296676635742,-53.16571807861328,15.7357120513916,180.0794982910156,163.8321380615234,20,264205.624042875,0.400238037109375,-0.770172119140625,-0.0115966796875,264205.624042875,0.238526023032947,-0.1696710583133843,0.060631655905616,264205.601427875,0.2901690038365041,1.55298566382674,1.016523713838129,0.3154551684856415,-0.15450818836689,0.02861976251006126,-0.1411468386650085,0.1424130201339722,0.04672706127166748,XArbitraryCorrectedZVertical,0.2550137639045715,0.6559582352638245,0.4275616109371185,0.567338764667511,0.526232898235321,-0.8502835035324097,-0.00937354750931263,25.84005355834961,-53.10031127929688,15.95361518859863,2,264202.4721594167,walking,1,2017-11-27 14:31:38.398 -0800,2017-11-27 14:29:53.937 -0800,30,16.15,0,0,2017-11-27 14:31:35.827 -0800,264202.635114,0,-1.239258,97.77392,1,1,0.75,0
2017-11-27 14:31:41.618 -0800,55,BF2B89E4-20AD-4334-A98B-17808832B17C,my_iOS_device,1511821900.069607,49.27718604199571,-122.9074187946666,343.5471,-1,-1,10,65,-9999,1511821901.572262,25.77578353881836,-52.70072937011719,16.1688404083252,180.8766632080078,164.6293029785156,20,264205.656770875,0.4821929931640625,-0.776458740234375,0.0116119384765625,264205.656770875,0.1718857430758942,-0.1170778878420635,-0.02072525223521465,264205.636656875,0.2722405691811494,1.562616200499036,1.01942367463527,0.2526377439498901,-0.1272200793027878,0.05239147692918777,-0.09092426300048828,0.06964075565338135,-0.01790118217468262,XArbitraryCorrectedZVertical,0.2598046064376831,0.656017541885376,0.4245251715183258,0.5673770308494568,0.5238313674926758,-0.8518062233924866,-0.004285102244466543,25.77578353881836,-52.70072937011719,16.1688404083252,2,264202.4721594167,walking,1,2017-11-27 14:31:38.398 -0800,2017-11-27 14:29:53.937 -0800,30,16.15,0,0,2017-11-27 14:31:35.827 -0800,264202.635114,0,-1.239258,97.77392,1,1,0.75,0
2017-11-27 14:31:41.622 -0800,56,BF2B89E4-20AD-4334-A98B-17808832B17C,my_iOS_device,1511821900.069607,49.27718604199571,-122.9074187946666,343.5471,-1,-1,10,65,-9999,1511821901.572262,25.77578353881836,-52.70072937011719,16.1688404083252,180.8766632080078,164.6293029785156,20,264205.690692875,0.5216217041015625,-0.7536163330078125,0.1034088134765625,264205.690692875,-0.1699898386958668,-0.130067722375034,0.08385548587554299,264205.671827875,0.2592266061359658,1.57060423929983,1.019527629001633,0.06971794366836548,-0.16938117146492,-0.01089219562709332,-0.02853691577911377,0.08652561902999878,0.03052663803100586,XArbitraryCorrectedZVertical,0.2624191045761108,0.6565713286399841,0.4219048917293549,0.5674880146980286,0.5237609148025513,-0.8518607020378113,-0.0001006079255603254,25.86982345581055,-52.98926544189453,16.67703819274902,2,264202.4721594167,walking,1,2017-11-27 14:31:38.398 -0800,2017-11-27 14:29:53.937 -0800,30,16.15,0,0,2017-11-27 14:31:35.827 -0800,264202.635114,0,-1.239258,97.77392,1,1,0.75,0
2017-11-27 14:31:41.653 -0800,57,BF2B89E4-20AD-4334-A98B-17808832B17C,my_iOS_device,1511821900.069607,49.27718604199571,-122.9074187946666,343.5471,-1,-1,10,65,-9999,1511821901.622575,25.82674789428711,-52.90708923339844,16.43297004699707,181.2589416503906,165.0115814208984,20,264205.724613875,0.519805908203125,-0.91632080078125,0.0516357421875,264205.724613875,0.2692088345839679,-0.2014036879661145,-0.02085761134139159,264205.707056875,0.266268840462359,1.559712736570384,1.021961576998731,-0.130553811788559,-0.1831330806016922,0.1294666230678558,-9.268522262573242e-05,0.02943307161331177,0.05888259410858154,XArbitraryCorrectedZVertical,0.2632139623165131,0.6540851593017578,0.4231619238853455,0.569052517414093,0.5216533541679382,-0.8531330227851868,-0.005782028660178185,25.78285598754883,-53.07417297363281,16.25885963439941,2,264202.4721594167,walking,1,2017-11-27 14:31:38.398 -0800,2017-11-27 14:29:53.937 -0800,30,16.15,0,0,2017-11-27 14:31:35.827 -0800,264202.635114,0,-1.239258,97.77392,1,1,0.75,0
2017-11-27 14:31:41.697 -0800,58,BF2B89E4-20AD-4334-A98B-17808832B17C,my_iOS_device,1511821900.069607,49.27718604199571,-122.9074187946666,343.5471,-1,-1,10,65,-9999,1511821901.672917,25.77630996704102,-52.88058471679688,16.52194786071777,181.88671875,165.6393585205078,20,264205.757342875,0.5572662353515625,-0.8821868896484375,0.050201416015625,264205.757342875,0.6103557754814832,-0.2366223954857583,-0.3589299327604104,264205.742227875,0.2518739956511706,1.564662221954953,1.022068818899714,0.5058431625366211,-0.2747603952884674,-0.1390410214662552,0.01810371875762939,-0.07794809341430664,0.03924071788787842,XArbitraryCorrectedZVertical,0.2669122517108917,0.6535733342170715,0.4197472631931305,0.5704453587532043,0.5215843915939331,-0.8531889319419861,-0.00319949327968061,25.77630996704102,-52.88058471679688,16.52194786071777,2,264202.4721594167,walking,1,2017-11-27 14:31:38.398 -0800,2017-11-27 14:29:53.937 -0800,30,16.15,0,0,2017-11-27 14:31:35.827 -0800,264202.635114,0,-1.239258,97.77392,1,1,0.75,0
2017-11-27 14:31:41.723 -0800,59,BF2B89E4-20AD-4334-A98B-17808832B17C,my_iOS_device,1511821900.069607,49.27718604199571,-122.9074187946666,343.5471,-1,-1,10,65,-9999,1511821901.672917,25.77630996704102,-52.88058471679688,16.52194786071777,181.88671875,165.6393585205078,20,264205.791263875,0.57305908203125,-0.815765380859375,0.1423797607421875,264205.791263875,-0.1346339783800838,-0.005630455176645526,-0.3895259252598947,264205.777456875,0.2157867090550796,1.588298338656479,1.010326995494922,0.3297968208789825,-0.04222531244158745,-0.4049551784992218,0.04131990671157837,-0.005731701850891113,0.13670814037323,XArbitraryCorrectedZVertical,0.2700101137161255,0.6570739150047302,0.409229189157486,0.5726045966148376,0.5314950346946716,-0.8470057249069214,0.009303182363510132,26.49120712280273,-52.26243591308594,16.7830982208252,2,264202.4721594167,walking,1,2017-11-27 14:31:38.398 -0800,2017-11-27 14:29:53.937 -0800,30,16.15,0,0,2017-11-27 14:31:35.827 -0800,264202.635114,0,-1.239258,97.77392,1,1,0.75,0
2017-11-27 14:31:41.776 -0800,60,BF2B89E4-20AD-4334-A98B-17808832B17C,my_iOS_device,1511821900.069607,49.27718604199571,-122.9074187946666,343.5471,-1,-1,10,65,-9999,1511821901.72311,26.71380233764648,-51.99381256103516,16.73714637756348,182.8373107910156,166.5899505615234,20,264205.825185875,0.5758514404296875,-0.9012908935546875,0.1082611083984375,264205.825185875,-0.2339073027544225,-0.01924773046243869,-0.01703704044156391,264205.812627875,0.2236814490799751,1.581308838834121,0.998241115758514,-0.3255706429481506,-0.04285432398319244,-0.2324734032154083,0.03113079071044922,0.009937644004821777,0.1290397644042969,XArbitraryCorrectedZVertical,0.2649175226688385,0.6577737927436829,0.407035619020462,0.5757350921630859,0.5417451858520508,-0.8405193686485291,0.005695312283933163,26.8685188293457,-51.91199493408203,16.55827140808105,2,264202.4721594167,walking,1,2017-11-27 14:31:38.398 -0800,2017-11-27 14:29:53.937 -0800,30,16.15,0,0,2017-11-27 14:31:35.827 -0800,264202.635114,0,-1.239258,97.77392,1,1,0.75,0
2017-11-27 14:31:41.793 -0800,61,BF2B89E4-20AD-4334-A98B-17808832B17C,my_iOS_device,1511821900.069607,49.27718604199571,-122.9074187946666,343.5471,-1,-1,10,65,-9999,1511821901.773517,27.07828903198242,-52.00461578369141,16.5905933380127,182.5187683105469,166.2714080810547,20,264205.8579137917,0.566802978515625,-0.962066650390625,0.018402099609375,264205.8579137917,0.3532821670366794,-0.03108974256558503,0.2417750795628436,264205.847856875,0.2333691736037485,1.57332984525016,0.9986543872256524,0.1349669247865677,0.0492602102458477,0.1551673114299774,0.03137421607971191,-0.1273201704025269,0.02630770206451416,XArbitraryCorrectedZVertical,0.2634964883327484,0.6567004323005676,0.4088918268680573,0.5762966871261597,0.5414254665374756,-0.8407431840896606,0.001371714286506176,27.03425216674805,-52.06327819824219,16.6885929107666,2,264202.4721594167,walking,1,2017-11-27 14:31:38.398 -0800,2017-11-27 14:29:53.937 -0800,30,16.15,0,0,2017-11-27 14:31:35.827 -0800,264202.635114,0,-1.239258,97.77392,1,1,0.75,0
2017-11-27 14:31:41.823 -0800,62,BF2B89E4-20AD-4334-A98B-17808832B17C,my_iOS_device,1511821900.069607,49.27718604199571,-122.9074187946666,343.5471,-1,-1,10,65,-9999,1511821901.773517,27.07828903198242,-52.00461578369141,16.5905933380127,182.5187683105469,166.2714080810547,20,264205.8918357917,0.50213623046875,-0.851409912109375,0.0509796142578125,264205.8918357917,0.1217533334518066,-0.00536307380320157,0.3467523623599141,264205.8830277917,0.2113500004107307,1.591554555594653,1.007898050080636,0.313787430524826,-0.01957414299249649,0.3293123543262482,-0.0149921178817749,-0.04735434055328369,0.02328634262084961,XArbitraryCorrectedZVertical,0.270018458366394,0.657744824886322,0.4076877236366272,0.5729294419288635,0.5335163474082947,-0.8457120060920715,0.01107644475996494,26.65472793579102,-51.94615173339844,16.96345329284668,2,264202.4721594167,walking,1,2017-11-27 14:31:38.398 -0800,2017-11-27 14:29:53.937 -0800,30,16.15,0,0,2017-11-27 14:31:35.827 -0800,264202.635114,0,-1.239258,97.77392,1,1,0.75,0
2017-11-27 14:31:41.854 -0800,63,BF2B89E4-20AD-4334-A98B-17808832B17C,my_iOS_device,1511821900.069607,49.27718604199571,-122.9074187946666,343.5471,-1,-1,10,65,-9999,1511821901.823696,26.40871810913086,-51.93732452392578,17.26021385192871,182.9762878417969,166.7289276123047,20,264205.9257567917,0.498077392578125,-0.7623748779296875,0.051422119140625,264205.9257567917,-0.2979517995969751,-0.007550061690374641,0.4227179671899883,264205.8830277917,0.2113500004107307,1.591554555594653,1.007898050080636,0.313787430524826,-0.01957414299249649,0.3293123543262482,-0.0149921178817749,-0.04735434055328369,0.02328634262084961,XArbitraryCorrectedZVertical,0.270018458366394,0.657744824886322,0.4076877236366272,0.5729294419288635,0.5335163474082947,-0.8457120060920715,0.01107644475996494,26.65472793579102,-51.94615173339844,16.96345329284668,2,264202.4721594167,walking,1,2017-11-27 14:31:38.398 -0800,2017-11-27 14:29:53.937 -0800,30,16.15,0,0,2017-11-27 14:31:35.827 -0800,264202.635114,0,-1.239258,97.77392,1,1,0.75,0
2017-11-27 14:31:41.894 -0800,64,BF2B89E4-20AD-4334-A98B-17808832B17C,my_iOS_device,1511821900.069607,49.27718604199571,-122.9074187946666,343.5471,-1,-1,10,65,-9999,1511821901.874078,25.68163681030273,-52.53022766113281,16.9565486907959,182.6958160400391,166.4484558105469,20,264205.9584857917,0.489013671875,-0.8602294921875,0.04156494140625,264205.9584857917,0.1063839644848503,-0.04814888724419659,0.1765537318345851,264205.9534287917,0.2261864369202733,1.578857982459865,1.034319508049818,-0.07986592501401901,-0.02163553796708584,0.2861669361591339,-0.03908514976501465,0.01536804437637329,0.05271875858306885,XArbitraryCorrectedZVertical,0.2763238549232483,0.6524609327316284,0.417853057384491,0.56862473487854,0.5110853314399719,-0.8595147728919983,0.004120283294469118,25.51662826538086,-52.63861846923828,16.84932518005371,2,264202.4721594167,walking,1,2017-11-27 14:31:38.398 -0800,2017-11-27 14:29:53.937 -0800,30,16.15,0,0,2017-11-27 14:31:35.827 -0800,264202.635114,0,-1.239258,97.77392,1,1,0.75,0
2017-11-27 14:31:41.936 -0800,65,BF2B89E4-20AD-4334-A98B-17808832B17C,my_iOS_device,1511821900.069607,49.27718604199571,-122.9074187946666,343.5471,-1,-1,10,65,-9999,1511821901.924161,25.30614852905273,-52.68923187255859,17.19059562683105,183.0770874023438,166.8297271728516,20,264205.9924067917,0.5111541748046875,-0.8654937744140625,0.08251953125,264205.9924067917,0.3090236255128705,-0.08270766344571884,0.01922296306430095,264205.9534287917,0.2261864369202733,1.578857982459865,1.034319508049818,-0.07986592501401901,-0.02163553796708584,0.2861669361591339,-0.03908514976501465,0.01536804437637329,0.05271875858306885,XArbitraryCorrectedZVertical,0.2763238549232483,0.6524609327316284,0.417853057384491,0.56862473487854,0.5110853314399719,-0.8595147728919983,0.004120283294469118,25.51662826538086,-52.63861846923828,16.84932518005371,2,264202.4721594167,walking,1,2017-11-27 14:31:38.398 -0800,2017-11-27 14:29:53.937 -0800,30,16.15,0,0,2017-11-27 14:31:35.827 -0800,264203.579223,0,-1.226044,97.77378,1,1,0.75,0
2017-11-27 14:31:41.954 -0800,66,BF2B89E4-20AD-4334-A98B-17808832B17C,my_iOS_device,1511821900.069607,49.27718604199571,-122.9074187946666,343.5471,-1,-1,10,65,-9999,1511821901.924161,25.30614852905273,-52.68923187255859,17.19059562683105,183.0770874023438,166.8297271728516,20,264206.0263287917,0.526092529296875,-0.8353271484375,0.10577392578125,264206.0263287917,-0.2172684048958255,-0.06867120660434721,0.06454490481137844,264205.9886567917,0.2105792444380905,1.589925328731247,1.03808687878873,0.3585168421268463,-0.07312625646591187,0.02809124067425728,0.003021061420440674,-0.00599747896194458,0.07311046123504639,XArbitraryCorrectedZVertical,0.2803246974945068,0.6528975367546082,0.416047066450119,0.5674883127212524,0.5077669024467468,-0.8614341616630554,0.009714258834719658,25.30614852905273,-52.68923187255859,17.19059562683105,2,264202.4721594167,walking,1,2017-11-27 14:31:38.398 -0800,2017-11-27 14:29:53.937 -0800,30,16.15,0,0,2017-11-27 14:31:35.827 -0800,264203.579223,0,-1.226044,97.77378,1,1,0.75,0
2017-11-27 14:31:42.016 -0800,67,BF2B89E4-20AD-4334-A98B-17808832B17C,my_iOS_device,1511821900.069607,49.27718604199571,-122.9074187946666,343.5471,-1,-1,10,65,-9999,1511821901.974637,25.31621170043945,-52.74673461914062,17.04018211364746,183.1907806396484,166.9434204101562,20,264206.0590567917,0.506011962890625,-0.965087890625,0.0910186767578125,264206.0590567917,0.03300855013098711,0.06153713067624294,0.09929329808251432,264206.0238287917,0.2022570781412055,1.594749654489009,1.039342307414046,-0.1253415495157242,-0.04909435287117958,0.06459777057170868,0.01805603504180908,0.03705883026123047,0.1005024909973145,XArbitraryCorrectedZVertical,0.2824416160583496,0.6529132127761841,0.4147295355796814,0.5673850774765015,0.5066326856613159,-0.8620710968971252,0.01213786005973816,25.24404525756836,-52.73384094238281,17.58016014099121,2,264202.4721594167,walking,1,2017-11-27 14:31:38.398 -0800,2017-11-27 14:29:53.937 -0800,30,16.15,0,0,2017-11-27 14:31:35.827 -0800,264203.579223,0,-1.226044,97.77378,1,1,0.75,0
2017-11-27 14:31:42.025 -0800,68,BF2B89E4-20AD-4334-A98B-17808832B17C,my_iOS_device,1511821900.069607,49.27718604199571,-122.9074187946666,343.5471,-1,-1,10,65,-9999,1511821901.974637,25.31621170043945,-52.74673461914062,17.04018211364746,183.1907806396484,166.9434204101562,20,264206.0929787917,0.5174407958984375,-0.8908843994140625,0.0987548828125,264206.0929787917,0.4092173383599406,0.1195754003123398,0.1283662287545823,264206.0590567917,0.214601776427427,1.582122719698955,1.043059892082121,-0.04363216459751129,0.01039428636431694,0.1122146993875504,-0.0007600784301757812,-0.103488564491272,0.08880937099456787,XArbitraryCorrectedZVertical,0.2822387218475342,0.6505329012870789,0.4175283014774323,0.5681668519973755,0.5035371780395508,-0.863949179649353,0.005703503731638193,25.15069198608398,-52.83895874023438,16.77922630310059,2,264202.4721594167,walking,1,2017-11-27 14:31:38.398 -0800,2017-11-27 14:29:53.937 -0800,30,16.15,0,0,2017-11-27 14:31:35.827 -0800,264203.579223,0,-1.226044,97.77378,1,1,0.75,0
2017-11-27 14:31:42.055 -0800,69,BF2B89E4-20AD-4334-A98B-17808832B17C,my_iOS_device,1511821900.069607,49.27718604199571,-122.9074187946666,343.5471,-1,-1,10,65,-9999,1511821902.024831,25.01771926879883,-52.85748291015625,17.19328117370605,183.1598510742188,166.9124908447266,20,264206.1268997917,0.547607421875,-0.8594970703125,0.0949554443359375,264206.1268997917,0.4748125939052463,-0.2416584331070982,0.2388056549474053,264206.0942287917,0.1994428263967521,1.599713115702184,1.046838813336847,0.3777803182601929,0.1410393714904785,0.1300695985555649,0.0159912109375,-0.02892935276031494,0.0827639102935791,XArbitraryCorrectedZVertical,0.2847185730934143,0.6528153419494629,0.4168228209018707,0.5648196935653687,0.500091552734375,-0.8658459782600403,0.01446507312357426,25.01771926879883,-52.85748291015625,17.19328117370605,2,264202.4721594167,walking,1,2017-11-27 14:31:38.398 -0800,2017-11-27 14:29:53.937 -0800,30,16.15,0,0,2017-11-27 14:31:35.827 -0800,264203.579223,0,-1.226044,97.77378,1,1,0.75,0
2017-11-27 14:31:42.097 -0800,70,BF2B89E4-20AD-4334-A98B-17808832B17C,my_iOS_device,1511821900.069607,49.27718604199571,-122.9074187946666,343.5471,-1,-1,10,65,-9999,1511821902.07506,24.9008674621582,-52.78660583496094,18.68721961975098,183.9947357177734,167.7473754882812,20,264206.1596287917,0.51025390625,-0.9686126708984375,0.171142578125,264206.1596287917,0.4720410421588008,-0.1131859442250217,0.2822660470925174,264206.1294567917,0.167795597403702,1.627151399956433,1.05273977407697,0.4774465560913086,-0.2299910187721252,0.2350272685289383,0.05531716346740723,0.004693269729614258,0.07669246196746826,XArbitraryCorrectedZVertical,0.2912274897098541,0.6550818085670471,0.4136063754558563,0.561229944229126,0.4943959712982178,-0.868783175945282,0.0278912540525198,24.76784896850586,-52.75978088378906,18.43338584899902,2,264202.4721594167,walking,1,2017-11-27 14:31:38.398 -0800,2017-11-27 14:29:53.937 -0800,30,16.15,0,0,2017-11-27 14:31:35.827 -0800,264203.579223,0,-1.226044,97.77378,1,1,0.75,0
2017-11-27 14:31:42.125 -0800,71,BF2B89E4-20AD-4334-A98B-17808832B17C,my_iOS_device,1511821900.069607,49.27718604199571,-122.9074187946666,343.5471,-1,-1,10,65,-9999,1511821902.07506,24.9008674621582,-52.78660583496094,18.68721961975098,183.9947357177734,167.7473754882812,20,264206.1935497917,0.4557647705078125,-0.85833740234375,0.184814453125,264206.1935497917,0.8291901190982752,-0.2549476069465936,0.03779345166153249,264206.1646287917,0.1331496605371202,1.650284827929636,1.061841687483803,0.4716108441352844,-0.1114181280136108,0.2924751937389374,0.02299803495407104,-0.08959054946899414,0.127859354019165,XArbitraryCorrectedZVertical,0.3006126284599304,0.654963493347168,0.4100719392299652,0.5590085387229919,0.4857147634029388,-0.8732543587684631,0.03869026154279709,24.60266494750977,-52.86971282958984,19.38554573059082,2,264202.4721594167,walking,1,2017-11-27 14:31:38.398 -0800,2017-11-27 14:29:53.937 -0800,30,16.15,0,0,2017-11-27 14:31:35.827 -0800,264203.579223,0,-1.226044,97.77378,1,1,0.75,0
2017-11-27 14:31:42.174 -0800,72,BF2B89E4-20AD-4334-A98B-17808832B17C,my_iOS_device,1511821900.069607,49.27718604199571,-122.9074187946666,343.5471,-1,-1,10,65,-9999,1511821902.125376,24.27438735961914,-52.34378051757812,19.98056602478027,185.2539825439453,169.0066223144531,20,264206.2274717917,0.4336090087890625,-0.728729248046875,0.1290130615234375,264206.2274717917,0.9813122774085824,-0.543333331908004,-0.1343839075537254,264206.1998577917,0.08301258953935964,1.687075349685345,1.064519229159756,0.8350839018821716,-0.2498653531074524,0.04045470058917999,-0.02784290909767151,0.04293662309646606,0.1488350629806519,XArbitraryCorrectedZVertical,0.3103867769241333,0.6571066975593567,0.4025360643863678,0.5566242337226868,0.4816392660140991,-0.8745558857917786,0.05625832825899124,24.38151168823242,-52.58145904541016,20.32757759094238,2,264202.4721594167,walking,1,2017-11-27 14:31:38.398 -0800,2017-11-27 14:29:53.937 -0800,30,16.15,0,0,2017-11-27 14:31:35.827 -0800,264203.579223,0,-1.226044,97.77378,1,1,0.75,0
2017-11-27 14:31:42.196 -0800,73,BF2B89E4-20AD-4334-A98B-17808832B17C,my_iOS_device,1511821900.069607,49.27718604199571,-122.9074187946666,343.5471,-1,-1,10,65,-9999,1511821902.175762,24.79833602905273,-51.62000274658203,21.74035835266113,187.6028137207031,171.3554534912109,20,264206.2602007917,0.490631103515625,-0.6999359130859375,0.225372314453125,264206.2602007917,0.9421462325212231,-1.0267093202984,-0.08621398133691716,264206.2350287917,0.01814764247144653,1.732077604804395,1.057961632896455,0.9939968585968018,-0.6074223518371582,-0.1411313116550446,-0.05995389819145203,0.16363924741745,0.05640482902526855,XArbitraryCorrectedZVertical,0.3209583461284637,0.6605904698371887,0.3894923031330109,0.5557845234870911,0.484270304441452,-0.8713571429252625,0.07878805696964264,24.55337905883789,-52.03292846679688,21.5750675201416,2,264202.4721594167,walking,1,2017-11-27 14:31:38.398 -0800,2017-11-27 14:29:53.937 -0800,30,16.15,0,0,2017-11-27 14:31:35.827 -0800,264203.579223,0,-1.226044,97.77378,1,1,0.75,0
2017-11-27 14:31:42.226 -0800,74,BF2B89E4-20AD-4334-A98B-17808832B17C,my_iOS_device,1511821900.069607,49.27718604199571,-122.9074187946666,343.5471,-1,-1,10,65,-9999,1511821902.175762,24.79833602905273,-51.62000274658203,21.74035835266113,187.6028137207031,171.3554534912109,20,264206.2941217917,0.53485107421875,-0.7938079833984375,0.1333465576171875,264206.2941217917,0.988759274764771,-1.079372798222499,0.0349001934532704,264206.2702577917,-0.04858082793596579,1.756908522178068,1.047498027047161,0.8992081880569458,-1.006394505500793,-0.04157637059688568,0.01685142517089844,0.1469830870628357,0.1566760540008545,XArbitraryCorrectedZVertical,0.3353492021560669,0.6586164832115173,0.3714410960674286,0.5619532465934753,0.4910984039306641,-0.8661755919456482,0.09246952086687088,25.67486953735352,-51.57976531982422,22.6143627166748,2,264202.4721594167,walking,1,2017-11-27 14:31:38.398 -0800,2017-11-27 14:29:53.937 -0800,30,16.15,0,0,2017-11-27 14:31:35.827 -0800,264203.579223,0,-1.226044,97.77378,1,1,0.75,0
2017-11-27 14:31:42.256 -0800,75,BF2B89E4-20AD-4334-A98B-17808832B17C,my_iOS_device,1511821900.069607,49.27718604199571,-122.9074187946666,343.5471,-1,-1,10,65,-9999,1511821902.225958,26.00638961791992,-51.05913543701172,22.80375480651855,191.4298400878906,175.1824798583984,20,264206.3280437917,0.43121337890625,-0.773895263671875,0.19000244140625,264206.3280437917,1.151611309107007,-0.4714668646277798,-0.234092392450183,264206.3054287917,-0.1128019352127345,1.776896636263615,1.042128018494624,1.120357394218445,-0.9871783852577209,-0.02447589486837387,0.0239722728729248,0.07423388957977295,0.003976225852966309,XArbitraryCorrectedZVertical,0.351367324590683,0.6543312668800354,0.3549007773399353,0.567830502986908,0.4936974346637726,-0.8634794950485229,0.1032168045639992,26.27238845825195,-50.89865112304688,23.08930397033691,2,264202.4721594167,walking,1,2017-11-27 14:31:38.398 -0800,2017-11-27 14:29:53.937 -0800,30,16.15,0,0,2017-11-27 14:31:35.827 -0800,264203.579223,0,-1.226044,97.77378,1,1,0.75,0
2017-11-27 14:31:42.296 -0800,76,BF2B89E4-20AD-4334-A98B-17808832B17C,my_iOS_device,1511821900.069607,49.27718604199571,-122.9074187946666,343.5471,-1,-1,10,65,-9999,1511821902.27657,26.76071548461914,-49.87738800048828,24.56057167053223,194.6087951660156,178.3614349365234,20,264206.3607717917,0.5227203369140625,-0.7550506591796875,0.2875518798828125,264206.3607717917,0.3124742833372862,-0.0529756004038562,-0.1170464625412005,264206.3406577917,-0.1905923694186071,1.825098422578819,1.025987411237131,0.9730381965637207,-0.3844777941703796,-0.2222976684570312,-0.0235932469367981,0.106157124042511,0.1133087873458862,XArbitraryCorrectedZVertical,0.3644506335258484,0.6575430035591125,0.3357727527618408,0.5675066113471985,0.5015748143196106,-0.8552263379096985,0.1303741335868835,26.76071548461914,-49.87738800048828,24.56057167053223,2,264202.4721594167,walking,1,2017-11-27 14:31:38.398 -0800,2017-11-27 14:29:53.937 -0800,30,16.15,0,0,2017-11-27 14:31:35.827 -0800,264203.579223,0,-1.226044,97.77378,1,1,0.75,0
2017-11-27 14:31:42.336 -0800,77,BF2B89E4-20AD-4334-A98B-17808832B17C,my_iOS_device,1511821900.069607,49.27718604199571,-122.9074187946666,343.5471,-1,-1,10,65,-9999,1511821902.326579,27.44163131713867,-49.26863098144531,26.0077953338623,195.2473602294922,179,20,264206.3946937917,0.3616790771484375,-0.7050323486328125,0.229522705078125,264206.3946937917,0.2067438585839413,-0.005875998629150832,-0.3868582367959624,264206.3758287917,-0.2182564887974127,1.843943867809096,1.017027349880505,0.1727941781282425,-0.08887785673141479,-0.1478365659713745,-0.03434199094772339,0.1222922801971436,0.129177451133728,XArbitraryCorrectedZVertical,0.3682471215724945,0.6597926020622253,0.3281560242176056,0.5669000744819641,0.5063879489898682,-0.8505484461784363,0.1418644338846207,27.08514022827148,-49.30115509033203,25.34840965270996,2,264202.4721594167,walking,1,2017-11-27 14:31:38.398 -0800,2017-11-27 14:29:53.937 -0800,30,16.15,0,0,2017-11-27 14:31:35.827 -0800,264203.579223,0,-1.226044,97.77378,1,1,0.75,0
2017-11-27 14:31:42.357 -0800,78,BF2B89E4-20AD-4334-A98B-17808832B17C,my_iOS_device,1511821900.069607,49.27718604199571,-122.9074187946666,343.5471,-1,-1,10,65,-9999,1511821902.326579,27.44163131713867,-49.26863098144531,26.0077953338623,195.2473602294922,179,20,264206.4286147917,0.5364990234375,-0.78668212890625,0.1441497802734375,264206.4286147917,0.1628512353939094,-0.3036136800744835,-0.41121204601641,264206.4110577917,-0.2232168819971546,1.845857022309511,1.003970131011324,0.1470529288053513,-0.2282977551221848,-0.4012162685394287,-0.05989670753479004,0.1068083047866821,0.01921725273132324,XArbitraryCorrectedZVertical,0.3664241433143616,0.6623079776763916,0.3223633468151093,0.5684693455696106,0.5167601108551025,-0.8436093926429749,0.1458370238542557,27.72314071655273,-49.06039428710938,25.87563896179199,2,264202.4721594167,walking,1,2017-11-27 14:31:38.398 -0800,2017-11-27 14:29:53.937 -0800,30,16.15,0,0,2017-11-27 14:31:35.827 -0800,264203.579223,0,-1.226044,97.77378,1,1,0.75,0
2017-11-27 14:31:42.416 -0800,79,BF2B89E4-20AD-4334-A98B-17808832B17C,my_iOS_device,1511821900.069607,49.27718604199571,-122.9074187946666,343.5471,-1,-1,10,65,-9999,1511821902.376833,28.23193740844727,-48.92940521240234,25.76632118225098,196.065185546875,179.8178253173828,20,264206.4613437917,0.4677581787109375,-0.750885009765625,0.140472412109375,264206.4613437917,0.377132372494993,-0.5929959599158017,-0.477558312989118,264206.4462297917,-0.2257857621976564,1.838386521416562,0.9884135406545904,0.1726205199956894,-0.2886007130146027,-0.4793532192707062,-0.03578460216522217,0.04140752553939819,0.09076547622680664,XArbitraryCorrectedZVertical,0.3646885454654694,0.6631100177764893,0.3146062791347504,0.5729783773422241,0.5304287672042847,-0.8351544737815857,0.1454252600669861,28.23193740844727,-48.92940521240234,25.76632118225098,2,264202.4721594167,walking,1,2017-11-27 14:31:38.398 -0800,2017-11-27 14:29:53.937 -0800,30,16.15,0,0,2017-11-27 14:31:35.827 -0800,264203.579223,0,-1.226044,97.77378,1,1,0.75,0
2017-11-27 14:31:42.427 -0800,80,BF2B89E4-20AD-4334-A98B-17808832B17C,my_iOS_device,1511821900.069607,49.27718604199571,-122.9074187946666,343.5471,-1,-1,10,65,-9999,1511821902.376833,28.23193740844727,-48.92940521240234,25.76632118225098,196.065185546875,179.8178253173828,20,264206.4952647917,0.455291748046875,-0.7830810546875,0.1520233154296875,264206.4952647917,0.9330861584927735,-0.5874320837664081,-0.04393922850910834,264206.4814577917,-0.2424485839704787,1.832738611779984,0.9699332604747507,0.6333286762237549,-0.7037872672080994,-0.3180568218231201,-0.1077032685279846,0.0783117413520813,-0.06372725963592529,XArbitraryCorrectedZVertical,0.3665635287761688,0.6624431014060974,0.3020326197147369,0.5792844891548157,0.5460577607154846,-0.8248479962348938,0.1463993638753891,29.49025344848633,-48.49927520751953,26.09932518005371,2,264202.4721594167,walking,1,2017-11-27 14:31:38.398 -0800,2017-11-27 14:29:53.937 -0800,30,16.15,0,0,2017-11-27 14:31:35.827 -0800,264203.579223,0,-1.226044,97.77378,1,1,0.75,0
2017-11-27 14:31:42.457 -0800,81,BF2B89E4-20AD-4334-A98B-17808832B17C,my_iOS_device,1511821900.069607,49.27718604199571,-122.9074187946666,343.5471,-1,-1,10,65,-9999,1511821902.427399,29.69873428344727,-47.91053009033203,26.27971458435059,198.3318634033203,182.0845031738281,20,264206.5291867917,0.5317535400390625,-0.9404754638671875,0.1996917724609375,264206.5291867917,0.8932529917523494,-0.6228377451945756,0.2715396331700052,264206.5166297917,-0.2980070973964977,1.856004474734903,0.9597821652230623,1.163556575775146,-0.6576576828956604,0.1294604390859604,-0.03604626655578613,-0.08591687679290771,-0.002689003944396973,XArbitraryCorrectedZVertical,0.3790855705738068,0.6610594391822815,0.2865141928195953,0.5806878805160522,0.5505115985870361,-0.8190666437149048,0.1614108979701996,29.91621780395508,-47.86528015136719,26.66039085388184,2,264202.4721594167,walking,1,2017-11-27 14:31:38.398 -0800,2017-11-27 14:29:53.937 -0800,30,16.15,0,0,2017-11-27 14:31:35.827 -0800,264203.579223,0,-1.226044,97.77378,1,1,0.75,0
2017-11-27 14:31:42.497 -0800,82,BF2B89E4-20AD-4334-A98B-17808832B17C,my_iOS_device,1511821900.069607,49.27718604199571,-122.9074187946666,343.5471,-1,-1,10,65,-9999,1511821902.477792,30.04413986206055,-47.61336517333984,27.49161720275879,201.0755767822266,184.8282165527344,20,264206.5619157917,0.588775634765625,-0.8007965087890625,0.2329254150390625,264206.5619157917,-1.130771540944919,0.7110618805222846,0.01223615994447807,264206.5518577917,-0.3306742116252013,1.866408144504778,0.9621521550034011,-0.6247864365577698,0.1011888235807419,0.1296255886554718,0.05940979719161987,-0.04809105396270752,0.1414963006973267,XArbitraryCorrectedZVertical,0.3889304995536804,0.657278299331665,0.2799022197723389,0.5816934704780579,0.5469439625740051,-0.82042396068573,0.1665633916854858,29.99496078491211,-47.74039459228516,27.12998008728027,2,264202.4721594167,walking,1,2017-11-27 14:31:38.398 -0800,2017-11-27 14:29:53.937 -0800,30,16.15,0,0,2017-11-27 14:31:35.827 -0800,264203.579223,0,-1.226044,97.77378,1,1,0.75,0
2017-11-27 14:31:42.528 -0800,83,BF2B89E4-20AD-4334-A98B-17808832B17C,my_iOS_device,1511821900.069607,49.27718604199571,-122.9074187946666,343.5471,-1,-1,10,65,-9999,1511821902.477792,30.04413986206055,-47.61336517333984,27.49161720275879,201.0755767822266,184.8282165527344,20,264206.5958367917,0.4692230224609375,-0.8603057861328125,0.160430908203125,264206.5958367917,-0.2852652991121646,0.1165063734721325,0.5872517877606097,264206.5870297917,-0.2780109953322054,1.837827834155959,0.9762335755750666,-0.5719925761222839,0.01222525723278522,0.3912754952907562,-0.06657308340072632,0.08858639001846313,-0.07340037822723389,XArbitraryCorrectedZVertical,0.3790515065193176,0.6559123992919922,0.2949626445770264,0.5823142528533936,0.5402821898460388,-0.8283935189247131,0.1478022336959839,29.40610122680664,-48.96398162841797,26.0778636932373,2,264202.4721594167,walking,1,2017-11-27 14:31:38.398 -0800,2017-11-27 14:29:53.937 -0800,30,16.15,0,0,2017-11-27 14:31:35.827 -0800,264203.579223,0,-1.226044,97.77378,1,1,0.75,0
2017-11-27 14:31:42.577 -0800,84,BF2B89E4-20AD-4334-A98B-17808832B17C,my_iOS_device,1511821900.069607,49.27718604199571,-122.9074187946666,343.5471,-1,-1,10,65,-9999,1511821902.527875,29.1688346862793,-49.31722259521484,26.17554664611816,199.0564270019531,182.8090667724609,20,264206.6297587917,0.7242584228515625,-0.861419677734375,-0.0123138427734375,264206.6297587917,0.005925799741535313,0.2443231920938315,1.207096139889936,264206.5870297917,-0.2780109953322054,1.837827834155959,0.9762335755750666,-0.5719925761222839,0.01222525723278522,0.3912754952907562,-0.06657308340072632,0.08858639001846313,-0.07340037822723389,XArbitraryCorrectedZVertical,0.3790515065193176,0.6559123992919922,0.2949626445770264,0.5823142528533936,0.5402821898460388,-0.8283935189247131,0.1478022336959839,29.40610122680664,-48.96398162841797,26.0778636932373,2,264202.4721594167,walking,1,2017-11-27 14:31:38.398 -0800,2017-11-27 14:29:53.937 -0800,30,16.15,0,0,2017-11-27 14:31:35.827 -0800,264203.579223,0,-1.226044,97.77378,1,1,0.75,0
2017-11-27 14:31:42.598 -0800,85,BF2B89E4-20AD-4334-A98B-17808832B17C,my_iOS_device,1511821900.069607,49.27718604199571,-122.9074187946666,343.5471,-1,-1,10,65,-9999,1511821902.577954,26.26566696166992,-51.32646179199219,25.82774543762207,198.1869354248047,181.9395751953125,20,264206.6624867917,0.5760650634765625,-1.006912231445312,0.178009033203125,264206.6624867917,0.397500761144137,0.1444280196049592,0.8743970122862613,264206.6574297917,-0.3018698379073784,1.872259279085819,1.042627494683119,0.3254138231277466,-0.01892371848225594,1.267199993133545,0.1247281730175018,-0.103797972202301,-0.001358866691589355,XArbitraryCorrectedZVertical,0.3969222605228424,0.6459620594978333,0.319175511598587,0.5686010122299194,0.4812136292457581,-0.863731324672699,0.1496285200119019,25.77663040161133,-51.72613525390625,26.10129356384277,2,264202.4721594167,walking,1,2017-11-27 14:31:38.398 -0800,2017-11-27 14:29:53.937 -0800,30,16.15,0,0,2017-11-27 14:31:35.827 -0800,264203.579223,0,-1.226044,97.77378,1,1,0.75,0
2017-11-27 14:31:42.628 -0800,86,BF2B89E4-20AD-4334-A98B-17808832B17C,my_iOS_device,1511821900.069607,49.27718604199571,-122.9074187946666,343.5471,-1,-1,10,65,-9999,1511821902.577954,26.26566696166992,-51.32646179199219,25.82774543762207,198.1869354248047,181.9395751953125,20,264206.6964087917,0.3933868408203125,-1.0533447265625,0.2625885009765625,264206.6964087917,0.4525634808942883,-0.1108807119854491,-0.02744201082050349,264206.6574297917,-0.3018698379073784,1.872259279085819,1.042627494683119,0.3254138231277466,-0.01892371848225594,1.267199993133545,0.1247281730175018,-0.103797972202301,-0.001358866691589355,XArbitraryCorrectedZVertical,0.3969222605228424,0.6459620594978333,0.319175511598587,0.5686010122299194,0.4812136292457581,-0.863731324672699,0.1496285200119019,25.77663040161133,-51.72613525390625,26.10129356384277,2,264202.4721594167,walking,1,2017-11-27 14:31:38.398 -0800,2017-11-27 14:29:53.937 -0800,30,16.15,0,0,2017-11-27 14:31:35.827 -0800,264203.579223,0,-1.226044,97.77378,1,1,0.75,0
2017-11-27 14:31:42.659 -0800,87,BF2B89E4-20AD-4334-A98B-17808832B17C,my_iOS_device,1511821900.069607,49.27718604199571,-122.9074187946666,343.5471,-1,-1,10,65,-9999,1511821902.628166,24.9752082824707,-51.47554779052734,26.74346733093262,198.537109375,182.2897491455078,20,264206.7303297917,0.3342742919921875,-0.769989013671875,0.216522216796875,264206.7303297917,0.49227920223064,-0.3831212891543632,-0.1048177594477747,264206.6926587917,-0.3417809570021347,1.911977023843972,1.053780908523282,0.4919091165065765,0.03482907265424728,0.05168859660625458,-0.06573027372360229,-0.1996714472770691,0.08843028545379639,XArbitraryCorrectedZVertical,0.4058974087238312,0.6464824080467224,0.3200017511844635,0.5611606240272522,0.4657851755619049,-0.8692982792854309,0.1653844267129898,24.9752082824707,-51.47554779052734,26.74346733093262,2,264202.4721594167,walking,1,2017-11-27 14:31:38.398 -0800,2017-11-27 14:29:53.937 -0800,30,16.15,0,0,2017-11-27 14:31:35.827 -0800,264203.579223,0,-1.226044,97.77378,1,1,0.75,0
2017-11-27 14:31:42.699 -0800,88,BF2B89E4-20AD-4334-A98B-17808832B17C,my_iOS_device,1511821900.069607,49.27718604199571,-122.9074187946666,343.5471,-1,-1,10,65,-9999,1511821902.678654,25.52744674682617,-50.97311401367188,27.69682121276855,199.9256744384766,183.6783142089844,20,264206.7630587917,0.8568572998046875,-0.7376708984375,0.29248046875,264206.7630587917,0.2673864334500267,-0.1271760620634259,0.8696454002693419,264206.7278297917,-0.3665678013674262,1.92794032210196,1.045556483588545,0.395575225353241,-0.1937394589185715,-0.1838601976633072,-0.178005039691925,0.05624377727508545,0.08801364898681641,XArbitraryCorrectedZVertical,0.4096797406673431,0.6479263305664062,0.3132274150848389,0.5605685114860535,0.4697683453559875,-0.8652036786079407,0.175292044878006,25.31532669067383,-51.02488708496094,27.42218589782715,2,264202.4721594167,walking,1,2017-11-27 14:31:38.398 -0800,2017-11-27 14:29:53.937 -0800,30,16.15,0,0,2017-11-27 14:31:35.827 -0800,264203.579223,0,-1.226044,97.77378,1,1,0.75,0
2017-11-27 14:31:42.738 -0800,89,BF2B89E4-20AD-4334-A98B-17808832B17C,my_iOS_device,1511821900.069607,49.27718604199571,-122.9074187946666,343.5471,-1,-1,10,65,-9999,1511821902.728816,23.25761795043945,-51.95269775390625,27.78737449645996,200.8386383056641,184.5912780761719,20,264206.7969797917,0.7086029052734375,-1.023468017578125,0.21484375,264206.7969797917,0.3675170293792619,-0.3908252815557444,1.47370493030166,264206.7630587917,-0.4041645774493219,1.944172046129249,1.047954295375118,0.3461586236953735,-0.3019645512104034,0.7365239262580872,0.4106665253639221,0.09841346740722656,0.1243666410446167,XArbitraryCorrectedZVertical,0.4197906851768494,0.6440839171409607,0.3069559633731842,0.5609852075576782,0.4649285972118378,-0.8664035201072693,0.1821366250514984,24.97293472290039,-51.20301055908203,27.69352912902832,2,264202.4721594167,walking,1,2017-11-27 14:31:38.398 -0800,2017-11-27 14:29:53.937 -0800,30,16.15,0,0,2017-11-27 14:31:35.827 -0800,264203.579223,0,-1.226044,97.77378,1,1,0.75,0
2017-11-27 14:31:42.759 -0800,90,BF2B89E4-20AD-4334-A98B-17808832B17C,my_iOS_device,1511821900.069607,49.27718604199571,-122.9074187946666,343.5471,-1,-1,10,65,-9999,1511821902.728816,23.25761795043945,-51.95269775390625,27.78737449645996,200.8386383056641,184.5912780761719,20,264206.8309017917,0.4411773681640625,-0.9203643798828125,0.40130615234375,264206.8309017917,0.1075032910910106,0.2740259603637032,1.611692094810262,264206.7982297917,-0.4554327309908713,1.986368692397775,1.082015883002131,0.3504905104637146,-0.3220790326595306,1.437636852264404,0.2943500280380249,-0.1460092067718506,0.02638387680053711,XArbitraryCorrectedZVertical,0.4360637664794922,0.6361035108566284,0.3146533668041229,0.5533616542816162,0.429572731256485,-0.8829061388969421,0.1895585656166077,23.25761795043945,-51.95269775390625,27.78737449645996,2,264202.4721594167,walking,1,2017-11-27 14:31:38.398 -0800,2017-11-27 14:29:53.937 -0800,30,16.15,0,0,2017-11-27 14:31:35.827 -0800,264203.579223,0,-1.226044,97.77378,1,1,0.75,0
2017-11-27 14:31:42.820 -0800,91,BF2B89E4-20AD-4334-A98B-17808832B17C,my_iOS_device,1511821900.069607,49.27718604199571,-122.9074187946666,343.5471,-1,-1,10,65,-9999,1511821902.779232,19.71817398071289,-53.57439422607422,28.20701026916504,201.0034027099609,184.7560424804688,20,264206.863631375,0.1989593505859375,-0.8344573974609375,0.191131591796875,264206.863631375,-0.115952169649287,-0.5412166514736091,1.104624625362521,264206.8334587917,-0.527156430098401,2.046980926671991,1.128712035943816,0.1159133091568947,0.2307810038328171,1.630610704421997,0.015504390001297,-0.0376206636428833,0.1681681871414185,XArbitraryCorrectedZVertical,0.4567097723484039,0.6240742206573486,0.3264162540435791,0.5435026884078979,0.380217045545578,-0.903861939907074,0.1961048990488052,20.38911819458008,-53.34369659423828,28.02494621276855,2,264202.4721594167,walking,1,2017-11-27 14:31:38.398 -0800,2017-11-27 14:29:53.937 -0800,30,16.15,0,0,2017-11-27 14:31:35.827 -0800,264203.579223,0,-1.226044,97.77378,1,1,0.75,0
2017-11-27 14:31:42.829 -0800,92,BF2B89E4-20AD-4334-A98B-17808832B17C,my_iOS_device,1511821900.069607,49.27718604199571,-122.9074187946666,343.5471,-1,-1,10,65,-9999,1511821902.779232,19.71817398071289,-53.57439422607422,28.20701026916504,201.0034027099609,184.7560424804688,20,264206.897552375,0.0118255615234375,-0.71295166015625,0.400054931640625,264206.897552375,-0.7304009574101129,-0.2545108485278206,0.1448882138413249,264206.868631375,-0.584100213999745,2.098909921288359,1.171126755359468,-0.1163850799202919,-0.5394490957260132,1.11483108997345,-0.1731237173080444,0.1190503835678101,-0.002633094787597656,XArbitraryCorrectedZVertical,0.4716712534427643,0.6128299832344055,0.3394535481929779,0.5354735851287842,0.3360875844955444,-0.9211896061897278,0.1960687190294266,18.66238021850586,-54.03304290771484,28.03128623962402,2,264202.4721594167,walking,1,2017-11-27 14:31:38.398 -0800,2017-11-27 14:29:53.937 -0800,30,16.15,0,0,2017-11-27 14:31:35.827 -0800,264203.579223,0,-1.226044,97.77378,1,1,0.75,0
2017-11-27 14:31:42.860 -0800,93,BF2B89E4-20AD-4334-A98B-17808832B17C,my_iOS_device,1511821900.069607,49.27718604199571,-122.9074187946666,343.5471,-1,-1,10,65,-9999,1511821902.829393,18.37388229370117,-54.91655731201172,27.08867454528809,201.4838409423828,185.2364807128906,20,264206.931474375,0.125244140625,-0.939666748046875,0.341156005859375,264206.931474375,-1.220439908531778,-0.2860059242113157,-0.8066909352609588,264206.903859375,-0.565574966168003,2.071306380863799,1.194189128745192,-0.7587056159973145,-0.2494953274726868,0.110192246735096,-0.3400679528713226,0.1573957204818726,0.1827483177185059,XArbitraryCorrectedZVertical,0.47382852435112,0.6030949950218201,0.3467577993869781,0.5399231314659119,0.3226424157619476,-0.9299177527427673,0.1764740943908691,18.52470779418945,-55.00457000732422,26.33990669250488,2,264202.4721594167,walking,1,2017-11-27 14:31:38.398 -0800,2017-11-27 14:29:53.937 -0800,30,16.15,0,0,2017-11-27 14:31:35.827 -0800,264203.579223,0,-1.226044,97.77378,1,1,0.75,0
2017-11-27 14:31:42.899 -0800,94,BF2B89E4-20AD-4334-A98B-17808832B17C,my_iOS_device,1511821900.069607,49.27718604199571,-122.9074187946666,343.5471,-1,-1,10,65,-9999,1511821902.879895,20.30411148071289,-55.48651885986328,23.95102500915527,201.4547882080078,185.2074279785156,20,264206.964202375,0.244598388671875,-0.9101104736328125,-0.1025848388671875,264206.964202375,-0.6286309195138249,-1.432187846803979,-0.9336518139083063,264206.939031375,-0.4486515924658815,1.949085961077271,1.195684481698764,-1.209543466567993,-0.2874609231948853,-0.8833545446395874,-0.1857039034366608,-0.01518154144287109,0.1200928688049316,XArbitraryCorrectedZVertical,0.4602921605110168,0.5964775681495667,0.3508227169513702,0.5561151504516602,0.3404585421085358,-0.9304666519165039,0.1353087276220322,19.76721572875977,-55.55018615722656,24.61577796936035,2,264202.4721594167,walking,1,2017-11-27 14:31:38.398 -0800,2017-11-27 14:29:53.937 -0800,30,16.15,0,0,2017-11-27 14:31:35.827 -0800,264204.523455,0,-1.226044,97.77378,1,1,0.75,0
2017-11-27 14:31:42.930 -0800,95,BF2B89E4-20AD-4334-A98B-17808832B17C,my_iOS_device,1511821900.069607,49.27718604199571,-122.9074187946666,343.5471,-1,-1,10,65,-9999,1511821902.879895,20.30411148071289,-55.48651885986328,23.95102500915527,201.4547882080078,185.2074279785156,20,264206.998124375,0.535064697265625,-0.9795379638671875,-0.0064239501953125,264206.998124375,0.2062980454174621,-0.1506949702821337,-0.6982251777519936,264206.974260375,-0.3426712473199882,1.815396004734418,1.169703970120419,-0.488160103559494,-1.114906907081604,-0.8202959299087524,0.1837103068828583,0.04977017641067505,-0.06912374496459961,XArbitraryCorrectedZVertical,0.4468966126441956,0.5895386934280396,0.3412104547023773,0.5799121260643005,0.3787896931171417,-0.9206350445747375,0.0945449098944664,22.3759651184082,-55.39065551757812,22.59424781799316,2,264202.4721594167,walking,1,2017-11-27 14:31:38.398 -0800,2017-11-27 14:29:53.937 -0800,30,16.15,0,0,2017-11-27 14:31:35.827 -0800,264204.523455,0,-1.226044,97.77378,1,1,0.75,0
2017-11-27 14:31:42.977 -0800,96,BF2B89E4-20AD-4334-A98B-17808832B17C,my_iOS_device,1511821900.069607,49.27718604199571,-122.9074187946666,343.5471,-1,-1,10,65,-9999,1511821902.929881,23.12604904174805,-54.88557434082031,22.37587928771973,203.2111053466797,186.9637451171875,20,264207.032045375,0.5263519287109375,-0.886322021484375,0.0662689208984375,264207.032045375,0.4279015439357186,0.1945449828947244,-0.3404547853302037,264207.009431375,-0.3292633403879082,1.791698680117737,1.144785981314114,0.2771134972572327,-0.1388720273971558,-0.6733911037445068,0.009700864553451538,-0.05843347311019897,-0.1215788125991821,XArbitraryCorrectedZVertical,0.4414341449737549,0.5919519662857056,0.3310865163803101,0.5874568819999695,0.4031867384910583,-0.910621702671051,0.09054247289896011,23.61171340942383,-54.52958679199219,22.31324195861816,2,264202.4721594167,walking,1,2017-11-27 14:31:38.398 -0800,2017-11-27 14:29:53.937 -0800,30,16.15,0,0,2017-11-27 14:31:35.827 -0800,264204.523455,0,-1.226044,97.77378,1,1,0.75,0
2017-11-27 14:31:43.000 -0800,97,BF2B89E4-20AD-4334-A98B-17808832B17C,my_iOS_device,1511821900.069607,49.27718604199571,-122.9074187946666,343.5471,-1,-1,10,65,-9999,1511821902.980314,24.38315200805664,-54.00234985351562,23.9268741607666,203.4767456054688,187.2293853759766,20,264207.064774375,0.15911865234375,-0.88067626953125,0.1915283203125,264207.064774375,0.6967420633409285,0.03622591504391184,-0.8567168184414433,264207.044660375,-0.3519750638836801,1.815186429807612,1.126502115326869,0.4850328266620636,0.3260647058486938,-0.3471107482910156,-0.09475541114807129,-0.06144124269485474,0.05748546123504639,XArbitraryCorrectedZVertical,0.440293937921524,0.5984483361244202,0.3231245577335358,0.5861624479293823,0.4170363247394562,-0.9029142260551453,0.1039983257651329,24.38315200805664,-54.00234985351562,23.9268741607666,2,264202.4721594167,walking,1,2017-11-27 14:31:38.398 -0800,2017-11-27 14:29:53.937 -0800,30,16.15,0,0,2017-11-27 14:31:35.827 -0800,264204.523455,0,-1.226044,97.77378,1,1,0.75,0
2017-11-27 14:31:43.031 -0800,98,BF2B89E4-20AD-4334-A98B-17808832B17C,my_iOS_device,1511821900.069607,49.27718604199571,-122.9074187946666,343.5471,-1,-1,10,65,-9999,1511821902.980314,24.38315200805664,-54.00234985351562,23.9268741607666,203.4767456054688,187.2293853759766,20,264207.098696375,0.54840087890625,-0.7935638427734375,0.228179931640625,264207.098696375,0.4390668468058758,-0.03803420142407565,-0.7994617844819387,264207.079831375,-0.3853714922638896,1.8512813549816,1.096425467627448,0.6477328538894653,-0.009238403290510178,-1.07656466960907,-0.2793707847595215,0.09154558181762695,0.07721614837646484,XArbitraryCorrectedZVertical,0.4381721615791321,0.6092836856842041,0.310433566570282,0.5834419727325439,0.4389166533946991,-0.889580249786377,0.1264429092407227,25.41696548461914,-52.71973419189453,24.83810615539551,2,264202.4721594167,walking,1,2017-11-27 14:31:38.398 -0800,2017-11-27 14:29:53.937 -0800,30,16.15,0,0,2017-11-27 14:31:35.827 -0800,264204.523455,0,-1.226044,97.77378,1,1,0.75,0
2017-11-27 14:31:43.061 -0800,99,BF2B89E4-20AD-4334-A98B-17808832B17C,my_iOS_device,1511821900.069607,49.27718604199571,-122.9074187946666,343.5471,-1,-1,10,65,-9999,1511821903.030624,26.12213516235352,-51.88591003417969,25.07242012023926,204.0970764160156,187.8497161865234,20,264207.132617375,0.7199554443359375,-0.8116912841796875,0.2133636474609375,264207.098696375,0.4390668468058758,-0.03803420142407565,-0.7994617844819387,264207.115060375,-0.4031202376369939,1.865588822778173,1.063545978797666,0.4036490917205811,-0.01344028301537037,-0.4933235049247742,0.1250346004962921,0.03375148773193359,0.08223891258239746,XArbitraryCorrectedZVertical,0.4344981014728546,0.6178823709487915,0.2963034808635712,0.5844929218292236,0.4648091495037079,-0.8740835189819336,0.1411344558000565,26.62221908569336,-51.61669921875,25.78208351135254,2,264202.4721594167,walking,1,2017-11-27 14:31:38.398 -0800,2017-11-27 14:29:53.937 -0800,30,16.15,0,0,2017-11-27 14:31:35.827 -0800,264204.523455,0,-1.226044,97.77378,1,1,0.75,0
2017-11-27 14:31:43.101 -0800,100,BF2B89E4-20AD-4334-A98B-17808832B17C,my_iOS_device,1511821900.069607,49.27718604199571,-122.9074187946666,343.5471,-1,-1,10,65,-9999,1511821903.080878,26.17697525024414,-51.38642120361328,26.19187355041504,204.8926544189453,188.6452941894531,20,264207.165346375,0.899658203125,-0.77545166015625,0.1244049072265625,264207.165346375,0.6353828318255028,0.40089575890177,0.9376529471300414,264207.150232375,-0.4406881284604148,1.895698552003474,1.061887533156559,0.5237848162651062,0.134662389755249,0.4295419752597809,0.4796380698680878,0.09648227691650391,-0.01784610748291016,XArbitraryCorrectedZVertical,0.4413496255874634,0.6188485622406006,0.2913348376750946,0.5808234214782715,0.4617224335670471,-0.8732767105102539,0.1555260717868805,26.17697525024414,-51.38642120361328,26.19187355041504,2,264202.4721594167,walking,1,2017-11-27 14:31:38.398 -0800,2017-11-27 14:29:53.937 -0800,30,16.15,0,0,2017-11-27 14:31:35.827 -0800,264204.523455,0,-1.226044,97.77378,1,1,0.75,0
2017-11-27 14:31:43.137 -0800,101,BF2B89E4-20AD-4334-A98B-17808832B17C,my_iOS_device,1511821900.069607,49.27718604199571,-122.9074187946666,343.5471,-1,-1,10,65,-9999,1511821903.131131,22.82374954223633,-51.98093414306641,28.65823936462402,204.0917053222656,187.8443450927734,20,264207.199267375,0.73309326171875,-0.7848358154296875,0.1690521240234375,264207.199267375,0.6698095152369571,0.8662719741165386,1.706396500018461,264207.185460375,-0.507999728993361,1.97183864296316,1.085316963223793,0.6560959815979004,0.8550160527229309,1.343679428100586,0.4661104083061218,0.1131196022033691,0.03736996650695801,XArbitraryCorrectedZVertical,0.4553753137588501,0.619445264339447,0.2979651093482971,0.5658027529716492,0.4295957684516907,-0.8844513893127441,0.1821582168340683,23.76877975463867,-51.78973388671875,28.02906608581543,2,264202.4721594167,walking,1,2017-11-27 14:31:38.398 -0800,2017-11-27 14:29:53.937 -0800,30,16.15,0,0,2017-11-27 14:31:35.827 -0800,264204.523455,0,-1.226044,97.77378,1,1,0.75,0
2017-11-27 14:31:43.161 -0800,102,BF2B89E4-20AD-4334-A98B-17808832B17C,my_iOS_device,1511821900.069607,49.27718604199571,-122.9074187946666,343.5471,-1,-1,10,65,-9999,1511821903.131131,22.82374954223633,-51.98093414306641,28.65823936462402,204.0917053222656,187.8443450927734,20,264207.233189375,0.244781494140625,-0.984039306640625,0.39959716796875,264207.233189375,0.7433702856026898,1.000449486685783,1.705522450548697,264207.220632375,-0.6170566623332135,2.099915872811644,1.12777467804856,0.757574200630188,0.8077849149703979,1.851483941078186,0.1298996806144714,0.02516460418701172,-0.07166051864624023,XArbitraryCorrectedZVertical,0.4760167896747589,0.6177341341972351,0.3140096664428711,0.5414845943450928,0.3700392842292786,-0.9034605026245117,0.2163748890161514,20.63813400268555,-52.38243103027344,29.82201957702637,2,264202.4721594167,walking,1,2017-11-27 14:31:38.398 -0800,2017-11-27 14:29:53.937 -0800,30,16.15,0,0,2017-11-27 14:31:35.827 -0800,264204.523455,0,-1.226044,97.77378,1,1,0.75,0
2017-11-27 14:31:43.222 -0800,103,BF2B89E4-20AD-4334-A98B-17808832B17C,my_iOS_device,1511821900.069607,49.27718604199571,-122.9074187946666,343.5471,-1,-1,10,65,-9999,1511821903.18154,17.85730361938477,-52.99570465087891,30.61788749694824,202.4730072021484,186.2256469726562,20,264207.265918375,-0.062286376953125,-0.8223419189453125,0.3896484375,264207.265918375,0.4448664127117413,0.255569188745018,0.6893632429086459,264207.255860375,-0.7419507240224031,2.24412860251562,1.159971186488568,0.5795535445213318,0.5572815537452698,1.152257561683655,-0.4309360682964325,0.07526940107345581,0.1342216730117798,XArbitraryCorrectedZVertical,0.4947881996631622,0.6161990761756897,0.3286198377609253,0.5171921253204346,0.3121921718120575,-0.9167916178703308,0.2490333318710327,17.06828689575195,-52.78038787841797,30.9373722076416,2,264202.4721594167,walking,1,2017-11-27 14:31:38.398 -0800,2017-11-27 14:29:53.937 -0800,30,16.15,0,0,2017-11-27 14:31:35.827 -0800,264204.523455,0,-1.226044,97.77378,1,1,0.75,0
2017-11-27 14:31:43.232 -0800,104,BF2B89E4-20AD-4334-A98B-17808832B17C,my_iOS_device,1511821900.069607,49.27718604199571,-122.9074187946666,343.5471,-1,-1,10,65,-9999,1511821903.18154,17.85730361938477,-52.99570465087891,30.61788749694824,202.4730072021484,186.2256469726562,20,264207.299839375,0.222869873046875,-0.980438232421875,0.37445068359375,264207.299839375,0.1867669546150389,0.1144094004298041,0.5539321804143014,264207.291032375,-0.8063881423877464,2.311771413980104,1.168674428739227,0.2463377714157104,0.1383460462093353,0.4597871899604797,-0.1053824424743652,-0.003809094429016113,0.1442019939422607,XArbitraryCorrectedZVertical,0.5040326714515686,0.6148459315299988,0.3324422836303711,0.5073391795158386,0.2887473106384277,-0.9202325940132141,0.264168918132782,15.9339714050293,-52.91778564453125,31.71170616149902,2,264202.4721594167,walking,1,2017-11-27 14:31:38.398 -0800,2017-11-27 14:29:53.937 -0800,30,16.15,0,0,2017-11-27 14:31:35.827 -0800,264204.523455,0,-1.226044,97.77378,1,1,0.75,0
2017-11-27 14:31:43.262 -0800,105,BF2B89E4-20AD-4334-A98B-17808832B17C,my_iOS_device,1511821900.069607,49.27718604199571,-122.9074187946666,343.5471,-1,-1,10,65,-9999,1511821903.231861,15.74985122680664,-52.92362976074219,31.79172325134277,202.0886077880859,185.8412475585938,20,264207.333761375,0.42901611328125,-1.10125732421875,0.3029327392578125,264207.333761375,0.2625639813481112,0.685501393011922,0.9779721407694051,264207.291032375,-0.8063881423877464,2.311771413980104,1.168674428739227,0.2463377714157104,0.1383460462093353,0.4597871899604797,-0.1053824424743652,-0.003809094429016113,0.1442019939422607,XArbitraryCorrectedZVertical,0.5040326714515686,0.6148459315299988,0.3324422836303711,0.5073391795158386,0.2887473106384277,-0.9202325940132141,0.264168918132782,15.9339714050293,-52.91778564453125,31.71170616149902,2,264202.4721594167,walking,1,2017-11-27 14:31:38.398 -0800,2017-11-27 14:29:53.937 -0800,30,16.15,0,0,2017-11-27 14:31:35.827 -0800,264204.523455,0,-1.226044,97.77378,1,1,0.75,0
2017-11-27 14:31:43.302 -0800,106,BF2B89E4-20AD-4334-A98B-17808832B17C,my_iOS_device,1511821900.069607,49.27718604199571,-122.9074187946666,343.5471,-1,-1,10,65,-9999,1511821903.282134,13.33003234863281,-53.56259918212891,32.49720764160156,201.0723419189453,184.8249816894531,20,264207.366489375,-0.044677734375,-0.6631317138671875,0.321441650390625,264207.366489375,0.3403120398957755,-0.5164300785760235,-0.03818626792231918,264207.361432375,-0.9349184937451234,2.454373887389418,1.191277045068946,0.3683753907680511,-0.01289381552487612,0.4190652072429657,-0.210219532251358,0.08895331621170044,0.0186842679977417,XArbitraryCorrectedZVertical,0.5199434757232666,0.6106091141700745,0.3459078967571259,0.486989289522171,0.2350150942802429,-0.9288428425788879,0.2863694131374359,13.08908081054688,-53.52562713623047,32.78759002685547,2,264202.4721594167,walking,1,2017-11-27 14:31:38.398 -0800,2017-11-27 14:29:53.937 -0800,30,16.15,0,0,2017-11-27 14:31:35.827 -0800,264204.523455,0,-1.226044,97.77378,1,1,0.75,0
2017-11-27 14:31:43.332 -0800,107,BF2B89E4-20AD-4334-A98B-17808832B17C,my_iOS_device,1511821900.069607,49.27718604199571,-122.9074187946666,343.5471,-1,-1,10,65,-9999,1511821903.282134,13.33003234863281,-53.56259918212891,32.49720764160156,201.0723419189453,184.8249816894531,20,264207.400411375,0.2413787841796875,-0.94744873046875,0.495208740234375,264207.400411375,-0.08994480370800917,-0.3922000053104433,-0.2349384787285012,264207.361432375,-0.9349184937451234,2.454373887389418,1.191277045068946,0.3683753907680511,-0.01289381552487612,0.4190652072429657,-0.210219532251358,0.08895331621170044,0.0186842679977417,XArbitraryCorrectedZVertical,0.5199434757232666,0.6106091141700745,0.3459078967571259,0.486989289522171,0.2350150942802429,-0.9288428425788879,0.2863694131374359,13.08908081054688,-53.52562713623047,32.78759002685547,2,264202.4721594167,walking,1,2017-11-27 14:31:38.398 -0800,2017-11-27 14:29:53.937 -0800,30,16.15,0,0,2017-11-27 14:31:35.827 -0800,264204.523455,0,-1.226044,97.77378,1,1,0.75,0
2017-11-27 14:31:43.376 -0800,108,BF2B89E4-20AD-4334-A98B-17808832B17C,my_iOS_device,1511821900.069607,49.27718604199571,-122.9074187946666,343.5471,-1,-1,10,65,-9999,1511821903.332247,13.79312133789062,-52.80982208251953,33.00289154052734,202.2777557373047,186.0303955078125,20,264207.434332375,0.20147705078125,-0.9173736572265625,0.2818145751953125,264207.434332375,0.1598072422679488,-0.4254591589000069,-0.5565053266595359,264207.396661375,-0.9324694340989902,2.43482977340432,1.181881992545224,-0.03315671533346176,-0.4275810122489929,-0.3245505094528198,-0.01480907201766968,-0.01101905107498169,0.2210525274276733,XArbitraryCorrectedZVertical,0.5224601626396179,0.6092690825462341,0.3377409279346466,0.4916844367980957,0.2462238967418671,-0.9253212809562683,0.2883468866348267,13.79312133789062,-52.80982208251953,33.00289154052734,2,264202.4721594167,walking,1,2017-11-27 14:31:38.398 -0800,2017-11-27 14:29:53.937 -0800,30,16.15,0,0,2017-11-27 14:31:35.827 -0800,264204.523455,0,-1.226044,97.77378,1,1,0.75,0
2017-11-27 14:31:43.402 -0800,109,BF2B89E4-20AD-4334-A98B-17808832B17C,my_iOS_device,1511821900.069607,49.27718604199571,-122.9074187946666,343.5471,-1,-1,10,65,-9999,1511821903.382733,15.71195983886719,-52.30519104003906,33.01300048828125,203.5684509277344,187.3210906982422,20,264207.467061375,-0.105224609375,-0.8188934326171875,0.3951568603515625,264207.467061375,-0.04560397050651688,-1.089934362473535,-1.564845493339114,264207.431832375,-0.9142110247785523,2.404728452869509,1.177824895097115,0.08971329033374786,-0.3580760359764099,-0.3329072296619415,-0.02118128538131714,-0.028312087059021,-0.01631045341491699,XArbitraryCorrectedZVertical,0.5218879580497742,0.6078031659126282,0.332807332277298,0.4974368214607239,0.257311075925827,-0.9237752556800842,0.2835834622383118,14.69526672363281,-52.63402557373047,32.79375457763672,2,264202.4721594167,walking,1,2017-11-27 14:31:38.398 -0800,2017-11-27 14:29:53.937 -0800,30,16.15,0,0,2017-11-27 14:31:35.827 -0800,264204.523455,0,-1.226044,97.77378,1,1,0.75,0
2017-11-27 14:31:43.460 -0800,110,BF2B89E4-20AD-4334-A98B-17808832B17C,my_iOS_device,1511821900.069607,49.27718604199571,-122.9074187946666,343.5471,-1,-1,10,65,-9999,1511821903.432817,19.79203414916992,-50.96415710449219,31.7625904083252,205.8236541748047,189.5762939453125,20,264207.500983375,0.688873291015625,-0.8542327880859375,0.3660888671875,264207.500983375,-0.2022082289314274,-0.1879169075737352,-0.7851110746319377,264207.467061375,-0.860799518025107,2.330881180003267,1.15099567440363,0.02332267910242081,-1.039731025695801,-1.430813550949097,-0.3844592869281769,0.1026843786239624,0.128695011138916,XArbitraryCorrectedZVertical,0.5167115926742554,0.6110742092132568,0.3165051341056824,0.5093305110931396,0.2953937351703644,-0.9131702184677124,0.2808051109313965,17.5294303894043,-51.59107971191406,32.59039306640625,2,264202.4721594167,walking,1,2017-11-27 14:31:38.398 -0800,2017-11-27 14:29:53.937 -0800,30,16.15,0,0,2017-11-27 14:31:35.827 -0800,264204.523455,0,-1.226044,97.77378,1,1,0.75,0
2017-11-27 14:31:43.463 -0800,111,BF2B89E4-20AD-4334-A98B-17808832B17C,my_iOS_device,1511821900.069607,49.27718604199571,-122.9074187946666,343.5471,-1,-1,10,65,-9999,1511821903.432817,19.79203414916992,-50.96415710449219,31.7625904083252,205.8236541748047,189.5762939453125,20,264207.534904375,0.67431640625,-0.913360595703125,0.2973480224609375,264207.534904375,0.07583058256280722,0.4767042372275296,0.2936318859927576,264207.502233375,-0.7767237771102978,2.226969529302576,1.119475721700478,-0.2416759133338928,-0.3113963007926941,-0.8878560066223145,0.3240624368190765,0.05119335651397705,0.1184359788894653,XArbitraryCorrectedZVertical,0.5048944354057312,0.6149181723594666,0.2992463409900665,0.5266921520233154,0.345569521188736,-0.8998718857765198,0.2660855054855347,19.79203414916992,-50.96415710449219,31.7625904083252,2,264202.4721594167,walking,1,2017-11-27 14:31:38.398 -0800,2017-11-27 14:29:53.937 -0800,30,16.15,0,0,2017-11-27 14:31:35.827 -0800,264204.523455,0,-1.226044,97.77378,1,1,0.75,0
2017-11-27 14:31:43.503 -0800,112,BF2B89E4-20AD-4334-A98B-17808832B17C,my_iOS_device,1511821900.069607,49.27718604199571,-122.9074187946666,343.5471,-1,-1,10,65,-9999,1511821903.483207,19.58667373657227,-51.03567504882812,32.44085693359375,205.0386047363281,188.7912445068359,20,264207.567633375,0.34832763671875,-0.696746826171875,0.4019775390625,264207.567633375,-0.1150485590914231,0.1533831650864597,0.1800328854826646,264207.537461375,-0.7644060738295453,2.223620504142719,1.1141158501778,0.07416452467441559,0.4817805588245392,0.2706014215946198,0.2385209798812866,0.0407097339630127,0.02931225299835205,XArbitraryCorrectedZVertical,0.5011439323425293,0.6186930537223816,0.2995197176933289,0.5256969928741455,0.3502851724624634,-0.8975212574005127,0.2678526639938354,19.80607223510742,-50.86049652099609,32.41313934326172,2,264202.4721594167,walking,1,2017-11-27 14:31:38.398 -0800,2017-11-27 14:29:53.937 -0800,30,16.15,0,0,2017-11-27 14:31:35.827 -0800,264204.523455,0,-1.226044,97.77378,1,1,0.75,0
2017-11-27 14:31:43.537 -0800,113,BF2B89E4-20AD-4334-A98B-17808832B17C,my_iOS_device,1511821900.069607,49.27718604199571,-122.9074187946666,343.5471,-1,-1,10,65,-9999,1511821903.483207,19.58667373657227,-51.03567504882812,32.44085693359375,205.0386047363281,188.7912445068359,20,264207.601554375,0.3713531494140625,-0.95684814453125,0.39752197265625,264207.601554375,-0.2939346874086995,0.1244271471862461,0.08666458819335857,264207.572633375,-0.7775367858622484,2.246266862405851,1.122664574881298,-0.1154834628105164,0.1551505327224731,0.1902372986078262,0.01595091819763184,0.1864296793937683,0.1405448913574219,XArbitraryCorrectedZVertical,0.5024869441986084,0.6188384294509888,0.3051578402519226,0.5209800601005554,0.3381293118000031,-0.9012581706047058,0.2709082663059235,19.38926315307617,-51.18597412109375,32.34999847412109,2,264202.4721594167,walking,1,2017-11-27 14:31:38.398 -0800,2017-11-27 14:29:53.937 -0800,30,16.15,0,0,2017-11-27 14:31:35.827 -0800,264204.523455,0,-1.226044,97.77378,1,1,0.75,0
2017-11-27 14:31:43.564 -0800,114,BF2B89E4-20AD-4334-A98B-17808832B17C,my_iOS_device,1511821900.069607,49.27718604199571,-122.9074187946666,343.5471,-1,-1,10,65,-9999,1511821903.533428,19.08111190795898,-51.37639617919922,32.27602386474609,204.4840545654297,188.2366943359375,20,264207.635476375,0.490875244140625,-0.82379150390625,0.301605224609375,264207.635476375,-0.1923555981625703,0.4209403071623604,0.6435049405180265,264207.607862375,-0.7654580544960363,2.238572299023252,1.129013665056753,-0.2964795827865601,0.1371627002954483,0.1161335483193398,0.1213274896144867,-0.01832658052444458,0.1068018674850464,XArbitraryCorrectedZVertical,0.5004401803016663,0.6180084347724915,0.3088946342468262,0.5217326283454895,0.3357037603855133,-0.9039909243583679,0.2647495865821838,18.97721481323242,-51.37617492675781,31.91387748718262,2,264202.4721594167,walking,1,2017-11-27 14:31:38.398 -0800,2017-11-27 14:29:53.937 -0800,30,16.15,0,0,2017-11-27 14:31:35.827 -0800,264204.523455,0,-1.226044,97.77378,1,1,0.75,0
2017-11-27 14:31:43.616 -0800,115,BF2B89E4-20AD-4334-A98B-17808832B17C,my_iOS_device,1511821900.069607,49.27718604199571,-122.9074187946666,343.5471,-1,-1,10,65,-9999,1511821903.583857,17.73933792114258,-52.27124786376953,31.61852836608887,203.3329620361328,187.0856018066406,20,264207.668205375,0.054473876953125,-0.9466705322265625,0.2829742431640625,264207.668205375,-0.1797601777870405,0.1433260035458844,0.2007464198090829,264207.643033375,-0.7749212176438398,2.259175828882549,1.14738187438097,-0.1915975213050842,0.4029411673545837,0.6537811160087585,0.1239237785339355,0.06438606977462769,0.04458761215209961,XArbitraryCorrectedZVertical,0.501543402671814,0.6155987977981567,0.318867415189743,0.5175051093101501,0.3172993361949921,-0.9116913676261902,0.2610153257846832,18.05910873413086,-52.11732482910156,31.61787986755371,2,264202.4721594167,walking,1,2017-11-27 14:31:38.398 -0800,2017-11-27 14:29:53.937 -0800,30,16.15,0,0,2017-11-27 14:31:35.827 -0800,264204.523455,0,-1.226044,97.77378,1,1,0.75,0
2017-11-27 14:31:43.634 -0800,116,BF2B89E4-20AD-4334-A98B-17808832B17C,my_iOS_device,1511821900.069607,49.27718604199571,-122.9074187946666,343.5471,-1,-1,10,65,-9999,1511821903.583857,17.73933792114258,-52.27124786376953,31.61852836608887,203.3329620361328,187.0856018066406,20,264207.702126375,0.3419036865234375,-0.855438232421875,0.2898712158203125,264207.702126375,-0.1500225221068887,-0.1486480646682988,0.003437608335074281,264207.678262375,-0.7836878677588681,2.27632174893098,1.16140278966197,-0.1874740719795227,0.07152455300092697,0.1405243128538132,-0.1993169486522675,0.0009042024612426758,0.0507662296295166,XArbitraryCorrectedZVertical,0.502454400062561,0.6136698126792908,0.3264488875865936,0.51417475938797,0.3030157089233398,-0.9173623919487,0.2581021189689636,16.98648452758789,-52.20494079589844,31.62859916687012,2,264202.4721594167,walking,1,2017-11-27 14:31:38.398 -0800,2017-11-27 14:29:53.937 -0800,30,16.15,0,0,2017-11-27 14:31:35.827 -0800,264204.523455,0,-1.226044,97.77378,1,1,0.75,0
